line_file,offset,jitter_x_cm,jitter_x_norm,trials_training.thisRepN,trials_training.thisTrialN,trials_training.thisN,trials_training.thisIndex,trials.thisRepN,trials.thisTrialN,trials.thisN,trials.thisIndex,polygon_txt.started,polygon_txt.stopped,text.started,text.stopped,resp_txt.keys,resp_txt.rt,resp_txt.started,resp_txt.stopped,polygon.started,polygon.stopped,image.started,image.stopped,resp.keys,resp.rt,resp.started,resp.stopped,polygon_txt_after_training.started,polygon_txt_after_training.stopped,text_after_train.started,text_after_train.stopped,key_resp_after_training.keys,key_resp_after_training.rt,key_resp_after_training.started,key_resp_after_training.stopped,polygon_end.started,polygon_end.stopped,text_end.started,text_end.stopped,participant,session,date,expName,psychopyVersion,frameRate,
,,,,,,,,,,,,9.04998589999741,None,9.04998589999741,None,space,27.851833099965006,9.04998589999741,None,,,,,,,,,,,,,,,,,,,,,04,001,2020_Nov_25_1917,lm,2020.2.8,59.93701819014226,
images/l2.png,-2,-0.15,-0.01875,0,0,0,4,,,,,,,,,,,,,36.97146599995904,None,37.49512269999832,39.99929039995186,left,3.365517899976112,37.648609299969394,None,,,,,,,,,,,,,04,001,2020_Nov_25_1917,lm,2020.2.8,59.93701819014226,
images/r4.png,4,-0.3,-0.0375,0,1,1,11,,,,,,,,,,,,,41.05693069996778,None,41.55290709994733,44.053393099980894,right,2.9411249000113457,41.75261609995505,None,,,,,,,,,,,,,04,001,2020_Nov_25_1917,lm,2020.2.8,59.93701819014226,
images/r8.png,8,0.0,0.0,0,2,2,12,,,,,,,,,,,,,44.73882179998327,None,45.239893099991605,None,right,2.1993599999696016,45.42299269995419,None,,,,,,,,,,,,,04,001,2020_Nov_25_1917,lm,2020.2.8,59.93701819014226,
images/l8.png,-8,0.0,0.0,0,3,3,1,,,,,,,,,,,,,47.657481299946085,None,48.14284649997717,None,left,1.5838890000013635,48.34245309996186,None,,,,,,,,,,,,,04,001,2020_Nov_25_1917,lm,2020.2.8,59.93701819014226,
images/r1.png,1,0.3,0.0375,0,4,4,8,,,,,,,,,,,,,49.960132299980614,None,50.44530009996379,52.94563329999801,left,2.7369018999743275,50.644834899983834,None,,,,,,,,,,,,,04,001,2020_Nov_25_1917,lm,2020.2.8,59.93701819014226,
images/r2.png,2,0.15,0.01875,0,5,5,10,,,,,,,,,,,,,53.43578309996519,None,53.931914099957794,56.43242019996978,left,3.570086399966385,54.1316652999958,None,,,,,,,,,,,,,04,001,2020_Nov_25_1917,lm,2020.2.8,59.93701819014226,
images/r8.png,8,0.3,0.0375,0,6,6,13,,,,,,,,,,,,,57.736505099979695,None,58.23636039998382,None,right,1.217888800019864,58.43596019997494,None,,,,,,,,,,,,,04,001,2020_Nov_25_1917,lm,2020.2.8,59.93701819014226,
images/l4.png,-4,-0.15,-0.01875,0,7,7,2,,,,,,,,,,,,,59.691872099996544,None,60.18831689999206,None,left,1.2178061000304297,60.388014399970416,None,,,,,,,,,,,,,04,001,2020_Nov_25_1917,lm,2020.2.8,59.93701819014226,
images/l2.png,-2,-0.3,-0.0375,0,8,8,3,,,,,,,,,,,,,61.6426445999532,None,62.13998439995339,None,left,2.098274299991317,62.33976669999538,None,,,,,,,,,,,,,04,001,2020_Nov_25_1917,lm,2020.2.8,59.93701819014226,
images/l2.png,-2,0.15,0.01875,0,9,9,5,,,,,,,,,,,,,64.47198049997678,None,64.95962229999714,None,left,1.7583411000086926,65.15928979997989,None,,,,,,,,,,,,,04,001,2020_Nov_25_1917,lm,2020.2.8,59.93701819014226,
images/r2.png,2,-0.15,-0.01875,0,10,10,9,,,,,,,,,,,,,66.96006439998746,None,67.44549399998505,69.94599709997419,right,3.4806759000057355,67.64517879998311,None,,,,,,,,,,,,,04,001,2020_Nov_25_1917,lm,2020.2.8,59.93701819014226,
images/l1.png,-1,0.3,0.0375,0,11,11,6,,,,,,,,,,,,,71.16128579998622,None,71.64946739998413,None,left,1.5808997999993153,71.84921600000234,None,,,,,,,,,,,,,04,001,2020_Nov_25_1917,lm,2020.2.8,59.93701819014226,
images/0.png,0,-0.15,-0.01875,0,12,12,7,,,,,,,,,,,,,73.46773169998778,None,73.96875,76.46918239997467,left,3.4051731000072323,74.16852999996627,None,,,,,,,,,,,,,04,001,2020_Nov_25_1917,lm,2020.2.8,59.93701819014226,
images/l8.png,-8,-0.3,-0.0375,0,13,13,0,,,,,,,,,,,,,77.62141389999306,None,78.12271759996656,None,left,1.0593610999640077,78.32231829996454,None,,,,,,,,,,,,,04,001,2020_Nov_25_1917,lm,2020.2.8,59.93701819014226,
,,,,,,,,,,,,,,,,,,,,,,,,,,,,79.40546209999593,None,79.40546209999593,None,space,1.7919346999842674,80.38973879994592,None,,,,,04,001,2020_Nov_25_1917,lm,2020.2.8,59.93701819014226,
images/l1.png,-1,-0.15,-0.01875,,,,,0,0,0,16,,,,,,,,,82.2298816999537,None,82.72739779995754,85.22794759995304,left,2.726628700038418,82.92710839997744,None,,,,,,,,,,,,,04,001,2020_Nov_25_1917,lm,2020.2.8,59.93701819014226,
images/r1.png,1,0.3,0.0375,,,,,0,1,1,29,,,,,,,,,85.69206619996112,None,86.18061739997938,None,right,1.465750100032892,86.38046279997798,None,,,,,,,,,,,,,04,001,2020_Nov_25_1917,lm,2020.2.8,59.93701819014226,
images/r1.png,1,-0.3,-0.0375,,,,,0,2,2,25,,,,,,,,,87.88194819999626,None,88.38283929997124,None,right,1.6005193999735638,88.56599539995659,None,,,,,,,,,,,,,04,001,2020_Nov_25_1917,lm,2020.2.8,59.93701819014226,
images/r1.png,1,0.15,0.01875,,,,,0,3,3,28,,,,,,,,,90.19845339999301,None,90.68545299995458,None,right,1.120602399983909,90.88505949999671,None,,,,,,,,,,,,,04,001,2020_Nov_25_1917,lm,2020.2.8,59.93701819014226,
images/l1.png,-1,0.0,0.0,,,,,0,4,4,17,,,,,,,,,92.05259029997978,None,92.55381009995472,None,left,0.8206597000244074,92.73697119997814,None,,,,,,,,,,,,,04,001,2020_Nov_25_1917,lm,2020.2.8,59.93701819014226,
images/l8.png,-8,0.0,0.0,,,,,0,5,5,2,,,,,,,,,93.60341709997738,None,94.08884779998334,None,left,0.7248567000497133,94.28885149996495,None,,,,,,,,,,,,,04,001,2020_Nov_25_1917,lm,2020.2.8,59.93701819014226,
images/l1.png,-1,0.3,0.0375,,,,,0,6,6,19,,,,,,,,,95.05558539996855,None,95.55699719995027,None,left,1.034122200042475,95.73989509994863,None,,,,,,,,,,,,,04,001,2020_Nov_25_1917,lm,2020.2.8,59.93701819014226,
images/r1.png,1,-0.15,-0.01875,,,,,0,7,7,26,,,,,,,,,96.80931729997974,None,97.30840449995594,None,right,0.7052174999844283,97.5084169000038,None,,,,,,,,,,,,,04,001,2020_Nov_25_1917,lm,2020.2.8,59.93701819014226,
images/r1.png,1,0.3,0.0375,,,,,0,8,8,29,,,,,,,,,98.2522909999825,None,98.74324079998769,101.24382429994876,left,2.5674191000289284,98.94291789998533,None,,,,,,,,,,,,,04,001,2020_Nov_25_1917,lm,2020.2.8,59.93701819014226,
images/l4.png,-4,0.0,0.0,,,,,0,9,9,7,,,,,,,,,101.54788559995359,None,102.04668319999473,None,left,0.9271757999667898,102.24642989999847,None,,,,,,,,,,,,,04,001,2020_Nov_25_1917,lm,2020.2.8,59.93701819014226,
images/l1.png,-1,0.0,0.0,,,,,0,10,10,17,,,,,,,,,103.21257149998564,None,103.69839849998243,None,left,0.7320936000323854,103.89815789996646,None,,,,,,,,,,,,,04,001,2020_Nov_25_1917,lm,2020.2.8,59.93701819014226,
images/r2.png,2,-0.15,-0.01875,,,,,0,11,11,31,,,,,,,,,104.66195019998122,None,105.14976199995726,None,right,0.8487348000053316,105.3492944999598,None,,,,,,,,,,,,,04,001,2020_Nov_25_1917,lm,2020.2.8,59.93701819014226,
images/l1.png,-1,0.3,0.0375,,,,,0,12,12,19,,,,,,,,,106.23328200000105,None,106.71801640000194,None,left,2.0642609000205994,106.91777629998978,None,,,,,,,,,,,,,04,001,2020_Nov_25_1917,lm,2020.2.8,59.93701819014226,
images/r8.png,8,0.15,0.01875,,,,,0,13,13,43,,,,,,,,,109.02040079998551,None,109.52077849995112,None,right,0.9092060999828391,109.72042399999918,None,,,,,,,,,,,,,04,001,2020_Nov_25_1917,lm,2020.2.8,59.93701819014226,
images/l8.png,-8,-0.15,-0.01875,,,,,0,14,14,1,,,,,,,,,110.67143109999597,None,111.15573179995408,None,left,0.8581650000414811,111.3554508999805,None,,,,,,,,,,,,,04,001,2020_Nov_25_1917,lm,2020.2.8,59.93701819014226,
images/l8.png,-8,-0.15,-0.01875,,,,,0,15,15,1,,,,,,,,,112.25285239994992,None,112.74059619999025,None,left,0.5853316999855451,112.94028459995752,None,,,,,,,,,,,,,04,001,2020_Nov_25_1917,lm,2020.2.8,59.93701819014226,
images/l1.png,-1,0.15,0.01875,,,,,0,16,16,18,,,,,,,,,113.56361989997094,None,114.05886439996539,None,right,1.9071605000062846,114.25844859995414,None,,,,,,,,,,,,,04,001,2020_Nov_25_1917,lm,2020.2.8,59.93701819014226,
images/r8.png,8,0.3,0.0375,,,,,0,17,17,44,,,,,,,,,116.20903029997135,None,116.69453300000168,None,right,1.5914232000359334,116.894278199994,None,,,,,,,,,,,,,04,001,2020_Nov_25_1917,lm,2020.2.8,59.93701819014226,
images/l4.png,-4,-0.3,-0.0375,,,,,0,18,18,5,,,,,,,,,118.5281501999707,None,119.01352239999687,None,left,1.5918695000000298,119.21373319998384,None,,,,,,,,,,,,,04,001,2020_Nov_25_1917,lm,2020.2.8,59.93701819014226,
images/r4.png,4,0.3,0.0375,,,,,0,19,19,39,,,,,,,,,120.85221289994661,None,121.34943259996362,None,right,1.560590599954594,121.54900889995042,None,,,,,,,,,,,,,04,001,2020_Nov_25_1917,lm,2020.2.8,59.93701819014226,
images/r1.png,1,0.0,0.0,,,,,0,20,20,27,,,,,,,,,123.1547806999879,None,123.65147089998936,None,right,2.2349158999859355,123.85125979996519,None,,,,,,,,,,,,,04,001,2020_Nov_25_1917,lm,2020.2.8,59.93701819014226,
images/l2.png,-2,0.0,0.0,,,,,0,21,21,12,,,,,,,,,126.12007239996456,None,126.62108569999691,None,left,0.7532881000079215,126.80418769997777,None,,,,,,,,,,,,,04,001,2020_Nov_25_1917,lm,2020.2.8,59.93701819014226,
images/r1.png,1,-0.15,-0.01875,,,,,0,22,22,26,,,,,,,,,127.59763799997745,None,128.08911549998447,130.5900338999927,left,2.6448376000043936,128.28886469994904,None,,,,,,,,,,,,,04,001,2020_Nov_25_1917,lm,2020.2.8,59.93701819014226,
images/r8.png,8,0.0,0.0,,,,,0,23,23,42,,,,,,,,,130.98181839997414,None,131.47601509996457,None,right,0.9694335000240244,131.67614919994958,None,,,,,,,,,,,,,04,001,2020_Nov_25_1917,lm,2020.2.8,59.93701819014226,
images/r4.png,4,-0.15,-0.01875,,,,,0,24,24,36,,,,,,,,,132.6906714999932,None,133.1777951999684,None,right,0.7239739000215195,133.3776297000004,None,,,,,,,,,,,,,04,001,2020_Nov_25_1917,lm,2020.2.8,59.93701819014226,
images/r2.png,2,0.15,0.01875,,,,,0,25,25,33,,,,,,,,,134.1484480999643,None,134.6458620999474,None,right,0.9040151999797672,134.84556980000343,None,,,,,,,,,,,,,04,001,2020_Nov_25_1917,lm,2020.2.8,59.93701819014226,
images/r2.png,2,0.15,0.01875,,,,,0,26,26,33,,,,,,,,,135.7963541999925,None,136.29744279995793,None,right,0.7731010999996215,136.48047449998558,None,,,,,,,,,,,,,04,001,2020_Nov_25_1917,lm,2020.2.8,59.93701819014226,
images/r8.png,8,-0.3,-0.0375,,,,,0,27,27,40,,,,,,,,,137.30203249998158,None,137.7991778999567,None,right,0.5187685000128113,137.99883719999343,None,,,,,,,,,,,,,04,001,2020_Nov_25_1917,lm,2020.2.8,59.93701819014226,
images/l4.png,-4,-0.15,-0.01875,,,,,0,28,28,6,,,,,,,,,138.54822469997453,None,139.03350049996516,None,left,2.036392399983015,139.23318599996855,None,,,,,,,,,,,,,04,001,2020_Nov_25_1917,lm,2020.2.8,59.93701819014226,
images/r2.png,2,0.0,0.0,,,,,0,29,29,32,,,,,,,,,141.30654659995344,None,141.80294249998406,None,left,0.5636679000454023,142.002680399979,None,,,,,,,,,,,,,04,001,2020_Nov_25_1917,lm,2020.2.8,59.93701819014226,
images/l4.png,-4,0.0,0.0,,,,,0,30,30,7,,,,,,,,,142.59946299996227,None,143.08769789995858,None,left,1.7901758000371046,143.28741509997053,None,,,,,,,,,,,,,04,001,2020_Nov_25_1917,lm,2020.2.8,59.93701819014226,
images/0.png,0,0.15,0.01875,,,,,0,31,31,23,,,,,,,,,145.12212209997233,None,145.60686909995275,None,left,1.6070694000227377,145.80653149995487,None,,,,,,,,,,,,,04,001,2020_Nov_25_1917,lm,2020.2.8,59.93701819014226,
images/l8.png,-8,-0.3,-0.0375,,,,,0,32,32,0,,,,,,,,,147.462153499946,None,147.95928619999904,None,left,0.5507500999956392,148.15890699997544,None,,,,,,,,,,,,,04,001,2020_Nov_25_1917,lm,2020.2.8,59.93701819014226,
images/l8.png,-8,-0.3,-0.0375,,,,,0,33,33,0,,,,,,,,,148.7463423999725,None,149.24399009998888,None,left,0.6582890000427142,149.44330929999705,None,,,,,,,,,,,,,04,001,2020_Nov_25_1917,lm,2020.2.8,59.93701819014226,
images/r2.png,2,0.3,0.0375,,,,,0,34,34,34,,,,,,,,,150.14009059994714,None,150.62821939995047,None,left,0.6012886000098661,150.82830239995383,None,,,,,,,,,,,,,04,001,2020_Nov_25_1917,lm,2020.2.8,59.93701819014226,
images/0.png,0,-0.15,-0.01875,,,,,0,35,35,21,,,,,,,,,151.4619480999536,None,151.9464482999756,None,right,0.48355089995311573,152.14635479997378,None,,,,,,,,,,,,,04,001,2020_Nov_25_1917,lm,2020.2.8,59.93701819014226,
images/r4.png,4,-0.15,-0.01875,,,,,0,36,36,36,,,,,,,,,152.66382539999904,None,153.16428839997388,None,right,0.7057333000120707,153.36393249995308,None,,,,,,,,,,,,,04,001,2020_Nov_25_1917,lm,2020.2.8,59.93701819014226,
images/l4.png,-4,-0.15,-0.01875,,,,,0,37,37,6,,,,,,,,,154.12004109995905,None,154.61579640000127,None,right,1.0464715999551117,154.81556989997625,None,,,,,,,,,,,,,04,001,2020_Nov_25_1917,lm,2020.2.8,59.93701819014226,
images/l8.png,-8,0.0,0.0,,,,,0,38,38,2,,,,,,,,,155.90583399997558,None,156.40091809997102,None,left,0.4134957999922335,156.60061569995014,None,,,,,,,,,,,,,04,001,2020_Nov_25_1917,lm,2020.2.8,59.93701819014226,
images/l1.png,-1,-0.3,-0.0375,,,,,0,39,39,15,,,,,,,,,157.05010999995284,None,157.53533149999566,None,left,1.5672175000072457,157.7350450999802,None,,,,,,,,,,,,,04,001,2020_Nov_25_1917,lm,2020.2.8,59.93701819014226,
images/l2.png,-2,0.3,0.0375,,,,,0,40,40,14,,,,,,,,,159.3356316999998,None,159.820991399989,None,left,1.5049373999936506,160.02060889999848,None,,,,,,,,,,,,,04,001,2020_Nov_25_1917,lm,2020.2.8,59.93701819014226,
images/l4.png,-4,0.3,0.0375,,,,,0,41,41,9,,,,,,,,,161.57626639999216,None,162.07315159996506,None,left,1.6525578000000678,162.27299189998303,None,,,,,,,,,,,,,04,001,2020_Nov_25_1917,lm,2020.2.8,59.93701819014226,
images/0.png,0,0.3,0.0375,,,,,0,42,42,24,,,,,,,,,163.95748379995348,None,164.44216269999743,None,right,2.132240999955684,164.64196499995887,None,,,,,,,,,,,,,04,001,2020_Nov_25_1917,lm,2020.2.8,59.93701819014226,
images/r8.png,8,0.3,0.0375,,,,,0,43,43,44,,,,,,,,,166.81045489996905,None,167.29485740000382,None,right,0.9587701000273228,167.49481209996156,None,,,,,,,,,,,,,04,001,2020_Nov_25_1917,lm,2020.2.8,59.93701819014226,
images/r8.png,8,-0.15,-0.01875,,,,,0,44,44,41,,,,,,,,,168.50088359997608,None,168.99679509998532,None,right,0.5369905999978073,169.19650479999837,None,,,,,,,,,,,,,04,001,2020_Nov_25_1917,lm,2020.2.8,59.93701819014226,
images/r8.png,8,-0.3,-0.0375,,,,,1,0,45,40,,,,,,,,,169.77810559998034,None,170.2646270999685,None,right,0.9818099999683909,170.4643544999999,None,,,,,,,,,,,,,04,001,2020_Nov_25_1917,lm,2020.2.8,59.93701819014226,
images/l4.png,-4,0.15,0.01875,,,,,1,1,46,8,,,,,,,,,171.4865642999648,None,171.98304859997006,None,left,0.4474374999990687,172.18277909996687,None,,,,,,,,,,,,,04,001,2020_Nov_25_1917,lm,2020.2.8,59.93701819014226,
images/r4.png,4,0.3,0.0375,,,,,1,2,47,39,,,,,,,,,172.66418719996,None,173.15088279999327,None,left,0.8476398999919184,173.35050989995943,None,,,,,,,,,,,,,04,001,2020_Nov_25_1917,lm,2020.2.8,59.93701819014226,
images/0.png,0,-0.3,-0.0375,,,,,1,3,48,20,,,,,,,,,174.2315292999847,None,174.71920849999879,None,right,0.6705617999541573,174.91897219995735,None,,,,,,,,,,,,,04,001,2020_Nov_25_1917,lm,2020.2.8,59.93701819014226,
images/r4.png,4,0.15,0.01875,,,,,1,4,49,38,,,,,,,,,175.63772709999466,None,176.1372824999853,None,right,2.2284837000188418,176.3370253999601,None,,,,,,,,,,,,,04,001,2020_Nov_25_1917,lm,2020.2.8,59.93701819014226,
images/r4.png,4,-0.3,-0.0375,,,,,1,5,50,35,,,,,,,,,178.60179059999064,None,179.09008549997816,None,right,0.5235888999886811,179.29001289996086,None,,,,,,,,,,,,,04,001,2020_Nov_25_1917,lm,2020.2.8,59.93701819014226,
images/r8.png,8,-0.15,-0.01875,,,,,1,6,51,41,,,,,,,,,179.8504175999551,None,180.34169410000322,None,right,1.2244497999781743,180.54100539995125,None,,,,,,,,,,,,,04,001,2020_Nov_25_1917,lm,2020.2.8,59.93701819014226,
images/r8.png,8,0.0,0.0,,,,,1,7,52,42,,,,,,,,,181.80322959995829,None,182.29317369998898,None,right,0.5045503000146709,182.49305170000298,None,,,,,,,,,,,,,04,001,2020_Nov_25_1917,lm,2020.2.8,59.93701819014226,
images/l4.png,-4,0.3,0.0375,,,,,1,8,53,9,,,,,,,,,183.0362759999698,None,183.52808819996426,None,left,0.9504616999765858,183.72769459994743,None,,,,,,,,,,,,,04,001,2020_Nov_25_1917,lm,2020.2.8,59.93701819014226,
images/r1.png,1,0.0,0.0,,,,,1,9,54,27,,,,,,,,,184.71938519994728,None,185.21320939995348,None,left,1.8727694999543019,185.41275859996676,None,,,,,,,,,,,,,04,001,2020_Nov_25_1917,lm,2020.2.8,59.93701819014226,
images/r4.png,4,0.0,0.0,,,,,1,10,55,37,,,,,,,,,187.3364714999916,None,187.83222979999846,None,right,1.5097070999909192,188.03188549994957,None,,,,,,,,,,,,,04,001,2020_Nov_25_1917,lm,2020.2.8,59.93701819014226,
images/0.png,0,0.15,0.01875,,,,,1,11,56,23,,,,,,,,,189.58769999997457,None,190.08441579999635,None,left,1.4340663999901153,190.28413960000034,None,,,,,,,,,,,,,04,001,2020_Nov_25_1917,lm,2020.2.8,59.93701819014226,
images/r1.png,1,0.15,0.01875,,,,,1,12,57,28,,,,,,,,,191.76127550000092,None,192.25330039998516,None,left,0.7685572999762371,192.45294789999025,None,,,,,,,,,,,,,04,001,2020_Nov_25_1917,lm,2020.2.8,59.93701819014226,
images/r4.png,4,0.0,0.0,,,,,1,13,58,37,,,,,,,,,193.2499215999851,None,193.73823949997313,None,right,1.0595205000136048,193.9379858999746,None,,,,,,,,,,,,,04,001,2020_Nov_25_1917,lm,2020.2.8,59.93701819014226,
images/0.png,0,0.3,0.0375,,,,,1,14,59,24,,,,,,,,,195.04245159996208,None,195.53979179996531,None,left,1.4018830000422895,195.73966869997093,None,,,,,,,,,,,,,04,001,2020_Nov_25_1917,lm,2020.2.8,59.93701819014226,
images/l8.png,-8,0.3,0.0375,,,,,1,15,60,4,,,,,,,,,197.18003920000046,None,197.67536269995617,None,left,0.9150833000312559,197.87506529997336,None,,,,,,,,,,,,,04,001,2020_Nov_25_1917,lm,2020.2.8,59.93701819014226,
images/l2.png,-2,0.15,0.01875,,,,,1,16,61,13,,,,,,,,,198.82198899996,None,199.31015789997764,None,right,0.943500800000038,199.50996989995474,None,,,,,,,,,,,,,04,001,2020_Nov_25_1917,lm,2020.2.8,59.93701819014226,
images/l2.png,-2,0.15,0.01875,,,,,1,17,62,13,,,,,,,,,200.4971539999824,None,200.99540259997593,None,right,0.5703960999962874,201.19510169996647,None,,,,,,,,,,,,,04,001,2020_Nov_25_1917,lm,2020.2.8,59.93701819014226,
images/r1.png,1,-0.3,-0.0375,,,,,1,18,63,25,,,,,,,,,201.81130899995333,None,202.29666289995657,None,right,0.5496865999884903,202.49643869994907,None,,,,,,,,,,,,,04,001,2020_Nov_25_1917,lm,2020.2.8,59.93701819014226,
images/r2.png,2,0.3,0.0375,,,,,1,19,64,34,,,,,,,,,203.0784030999639,None,203.56456869997783,206.06513929995708,left,3.489114800002426,203.76440029998776,None,,,,,,,,,,,,,04,001,2020_Nov_25_1917,lm,2020.2.8,59.93701819014226,
images/r2.png,2,-0.3,-0.0375,,,,,1,20,65,30,,,,,,,,,207.3054051999934,None,207.8020895999507,None,right,0.548229000007268,208.00180379999802,None,,,,,,,,,,,,,04,001,2020_Nov_25_1917,lm,2020.2.8,59.93701819014226,
images/r2.png,2,-0.3,-0.0375,,,,,1,21,66,30,,,,,,,,,208.58136589999776,None,209.06995119998464,None,right,1.32779800001299,209.2697001999477,None,,,,,,,,,,,,,04,001,2020_Nov_25_1917,lm,2020.2.8,59.93701819014226,
images/l2.png,-2,-0.3,-0.0375,,,,,1,22,67,10,,,,,,,,,210.63743399997475,None,211.13902029994642,None,left,1.275812100037001,211.32166239997605,None,,,,,,,,,,,,,04,001,2020_Nov_25_1917,lm,2020.2.8,59.93701819014226,
images/l2.png,-2,0.0,0.0,,,,,1,23,68,12,,,,,,,,,212.64206099999137,None,213.14084399997955,None,left,0.536909900023602,213.34067849995336,None,,,,,,,,,,,,,04,001,2020_Nov_25_1917,lm,2020.2.8,59.93701819014226,
images/0.png,0,-0.15,-0.01875,,,,,1,24,69,21,,,,,,,,,213.92125319998013,None,214.40878399997018,None,right,0.5010117000201717,214.60855799994897,None,,,,,,,,,,,,,04,001,2020_Nov_25_1917,lm,2020.2.8,59.93701819014226,
images/l2.png,-2,-0.15,-0.01875,,,,,1,25,70,11,,,,,,,,,215.14536159997806,None,215.6432833999861,None,right,0.5470179000403732,215.84301919996506,None,,,,,,,,,,,,,04,001,2020_Nov_25_1917,lm,2020.2.8,59.93701819014226,
images/l8.png,-8,0.3,0.0375,,,,,1,26,71,4,,,,,,,,,216.4265705999569,None,216.91120599996066,None,left,0.894735399982892,217.11089640000137,None,,,,,,,,,,,,,04,001,2020_Nov_25_1917,lm,2020.2.8,59.93701819014226,
images/0.png,0,-0.3,-0.0375,,,,,1,27,72,20,,,,,,,,,218.03878839995014,None,218.52937569998903,None,right,0.6522203999920748,218.7292547999532,None,,,,,,,,,,,,,04,001,2020_Nov_25_1917,lm,2020.2.8,59.93701819014226,
images/l2.png,-2,-0.15,-0.01875,,,,,1,28,73,11,,,,,,,,,219.4293073999579,None,219.91440769995097,None,left,1.6842951999860816,220.11390769999707,None,,,,,,,,,,,,,04,001,2020_Nov_25_1917,lm,2020.2.8,59.93701819014226,
images/l4.png,-4,0.15,0.01875,,,,,1,29,74,8,,,,,,,,,221.8397285999963,None,222.33316919999197,None,left,1.3127402000245638,222.53301079996163,None,,,,,,,,,,,,,04,001,2020_Nov_25_1917,lm,2020.2.8,59.93701819014226,
images/r2.png,2,-0.15,-0.01875,,,,,1,30,75,31,,,,,,,,,223.88582839997252,None,224.3854108999949,None,right,0.7967963999835774,224.5851299999631,None,,,,,,,,,,,,,04,001,2020_Nov_25_1917,lm,2020.2.8,59.93701819014226,
images/l1.png,-1,-0.15,-0.01875,,,,,1,31,76,16,,,,,,,,,225.4191063999897,None,225.9201864999486,228.42063769995002,left,2.926340900012292,226.10320469998987,None,,,,,,,,,,,,,04,001,2020_Nov_25_1917,lm,2020.2.8,59.93701819014226,
images/r4.png,4,-0.3,-0.0375,,,,,1,32,77,35,,,,,,,,,229.0713662999915,None,229.55733989999862,None,right,0.5204087999882177,229.756951999967,None,,,,,,,,,,,,,04,001,2020_Nov_25_1917,lm,2020.2.8,59.93701819014226,
images/0.png,0,0.0,0.0,,,,,1,33,78,22,,,,,,,,,230.31683409999823,None,230.808842599974,None,left,1.4451406999723986,231.00827189994743,None,,,,,,,,,,,,,04,001,2020_Nov_25_1917,lm,2020.2.8,59.93701819014226,
images/r4.png,4,0.15,0.01875,,,,,1,34,79,38,,,,,,,,,232.4920063999598,None,232.9773818999529,None,right,1.5808070999919437,233.17708749999292,None,,,,,,,,,,,,,04,001,2020_Nov_25_1917,lm,2020.2.8,59.93701819014226,
images/r2.png,2,0.0,0.0,,,,,1,35,80,32,,,,,,,,,234.7907837999519,None,235.28003289998742,None,right,0.9101000999798998,235.47935859998688,None,,,,,,,,,,,,,04,001,2020_Nov_25_1917,lm,2020.2.8,59.93701819014226,
images/l2.png,-2,0.3,0.0375,,,,,1,36,81,14,,,,,,,,,236.4291720999754,None,236.91449159994954,None,left,0.9232818000018597,237.11422589997528,None,,,,,,,,,,,,,04,001,2020_Nov_25_1917,lm,2020.2.8,59.93701819014226,
images/l8.png,-8,0.15,0.01875,,,,,1,37,82,3,,,,,,,,,238.0884931999608,None,238.58287199999904,None,left,0.6791279999888502,238.78266509994864,None,,,,,,,,,,,,,04,001,2020_Nov_25_1917,lm,2020.2.8,59.93701819014226,
images/l2.png,-2,-0.3,-0.0375,,,,,1,38,83,10,,,,,,,,,239.5017830999568,None,240.0008845999837,None,right,1.4208875999902375,240.20060379995266,None,,,,,,,,,,,,,04,001,2020_Nov_25_1917,lm,2020.2.8,59.93701819014226,
images/l4.png,-4,-0.3,-0.0375,,,,,1,39,84,5,,,,,,,,,241.67020679998677,None,242.16963999997824,None,right,1.7961151999770664,242.36939219996566,None,,,,,,,,,,,,,04,001,2020_Nov_25_1917,lm,2020.2.8,59.93701819014226,
images/l8.png,-8,0.15,0.01875,,,,,1,40,85,3,,,,,,,,,244.20038419996854,None,244.68913939996855,None,left,0.44474170001922175,244.8888394999667,None,,,,,,,,,,,,,04,001,2020_Nov_25_1917,lm,2020.2.8,59.93701819014226,
images/0.png,0,0.0,0.0,,,,,1,41,86,22,,,,,,,,,245.37788859999273,None,245.87341069994727,None,right,1.9329311000183225,246.07310679997317,None,,,,,,,,,,,,,04,001,2020_Nov_25_1917,lm,2020.2.8,59.93701819014226,
images/l1.png,-1,-0.3,-0.0375,,,,,1,42,87,15,,,,,,,,,248.0486407999997,None,248.54271719994722,None,left,1.4549514999962412,248.74246189999394,None,,,,,,,,,,,,,04,001,2020_Nov_25_1917,lm,2020.2.8,59.93701819014226,
images/l1.png,-1,0.15,0.01875,,,,,1,43,88,18,,,,,,,,,250.24683839996578,None,250.74501339998096,253.24551629996859,left,2.6607169999624602,250.94475539994892,None,,,,,,,,,,,,,04,001,2020_Nov_25_1917,lm,2020.2.8,59.93701819014226,
images/r8.png,8,0.15,0.01875,,,,,1,44,89,43,,,,,,,,,253.64160499995342,None,254.13146259996574,None,right,0.44214400002965704,254.33130019996315,None,,,,,,,,,,,,,04,001,2020_Nov_25_1917,lm,2020.2.8,59.93701819014226,
,,,,,,,,,,,,,,,,,,,,,,,,,,,,,,,,,,,,254.79714309994597,None,254.79714309994597,None,,,,,,,
