resp_txt.keys,resp_txt.rt,resp.keys,resp.rt,trials_training.thisRepN,trials_training.thisTrialN,trials_training.thisN,trials_training.thisIndex,trials_training.ran,line_file,offset,jitter_x_cm,jitter_x_norm,participant,session,date,expName,psychopyVersion,OS,frameRate,key_resp_after_training.keys,key_resp_after_training.rt,trials.thisRepN,trials.thisTrialN,trials.thisN,trials.thisIndex,trials.ran
space,131.821,right,4.882,0,0,0,3,1,images/l2.png,-2,-0.3,-0.0375,sabineLaf,001,2020-11-27_17h51.18.953,lm,2020.2.8,Win32,60,,,,,,,
,,left,3.431,0,1,1,1,1,images/l8.png,-8,0,0,sabineLaf,001,2020-11-27_17h51.18.953,lm,2020.2.8,Win32,60,,,,,,,
,,left,2.666,0,2,2,0,1,images/l8.png,-8,-0.3,-0.0375,sabineLaf,001,2020-11-27_17h51.18.953,lm,2020.2.8,Win32,60,,,,,,,
,,left,1.933,0,3,3,2,1,images/l4.png,-4,-0.15,-0.01875,sabineLaf,001,2020-11-27_17h51.18.953,lm,2020.2.8,Win32,60,,,,,,,
,,left,2.934,0,4,4,6,1,images/l1.png,-1,0.3,0.0375,sabineLaf,001,2020-11-27_17h51.18.953,lm,2020.2.8,Win32,60,,,,,,,
,,left,1.802,0,5,5,5,1,images/l2.png,-2,0.15,0.01875,sabineLaf,001,2020-11-27_17h51.18.953,lm,2020.2.8,Win32,60,,,,,,,
,,right,1.385,0,6,6,9,1,images/r2.png,2,-0.15,-0.01875,sabineLaf,001,2020-11-27_17h51.18.953,lm,2020.2.8,Win32,60,,,,,,,
,,right,2.332,0,7,7,8,1,images/r1.png,1,0.3,0.0375,sabineLaf,001,2020-11-27_17h51.18.953,lm,2020.2.8,Win32,60,,,,,,,
,,right,1.521,0,8,8,4,1,images/l2.png,-2,-0.15,-0.01875,sabineLaf,001,2020-11-27_17h51.18.953,lm,2020.2.8,Win32,60,,,,,,,
,,right,1.066,0,9,9,7,1,images/0.png,0,-0.15,-0.01875,sabineLaf,001,2020-11-27_17h51.18.953,lm,2020.2.8,Win32,60,,,,,,,
,,right,0.941,0,10,10,13,1,images/r8.png,8,0.3,0.0375,sabineLaf,001,2020-11-27_17h51.18.953,lm,2020.2.8,Win32,60,,,,,,,
,,right,0.954,0,11,11,12,1,images/r8.png,8,0,0,sabineLaf,001,2020-11-27_17h51.18.953,lm,2020.2.8,Win32,60,,,,,,,
,,right,0.986,0,12,12,11,1,images/r4.png,4,-0.3,-0.0375,sabineLaf,001,2020-11-27_17h51.18.953,lm,2020.2.8,Win32,60,,,,,,,
,,right,2.606,0,13,13,10,1,images/r2.png,2,0.15,0.01875,sabineLaf,001,2020-11-27_17h51.18.953,lm,2020.2.8,Win32,60,,,,,,,
,,right,2.806,,,,,,images/l2.png,-2,-0.3,-0.0375,sabineLaf,001,2020-11-27_17h51.18.953,lm,2020.2.8,Win32,60,space,12.077,0,0,0,10,1
,,left,1.644,,,,,,images/l8.png,-8,-0.15,-0.01875,sabineLaf,001,2020-11-27_17h51.18.953,lm,2020.2.8,Win32,60,,,0,1,1,1,1
,,left,1.253,,,,,,images/l8.png,-8,0.3,0.0375,sabineLaf,001,2020-11-27_17h51.18.953,lm,2020.2.8,Win32,60,,,0,2,2,4,1
,,left,2.662,,,,,,images/0.png,0,0,0,sabineLaf,001,2020-11-27_17h51.18.953,lm,2020.2.8,Win32,60,,,0,3,3,22,1
,,right,1.288,,,,,,images/r8.png,8,0,0,sabineLaf,001,2020-11-27_17h51.18.953,lm,2020.2.8,Win32,60,,,0,4,4,42,1
,,left,2.329,,,,,,images/l1.png,-1,-0.15,-0.01875,sabineLaf,001,2020-11-27_17h51.18.953,lm,2020.2.8,Win32,60,,,0,5,5,16,1
,,left,2.376,,,,,,images/l2.png,-2,0,0,sabineLaf,001,2020-11-27_17h51.18.953,lm,2020.2.8,Win32,60,,,0,6,6,12,1
,,right,1.534,,,,,,images/l1.png,-1,0.3,0.0375,sabineLaf,001,2020-11-27_17h51.18.953,lm,2020.2.8,Win32,60,,,0,7,7,19,1
,,right,1.221,,,,,,images/r2.png,2,0,0,sabineLaf,001,2020-11-27_17h51.18.953,lm,2020.2.8,Win32,60,,,0,8,8,32,1
,,left,0.72,,,,,,images/l8.png,-8,0,0,sabineLaf,001,2020-11-27_17h51.18.953,lm,2020.2.8,Win32,60,,,0,9,9,2,1
,,left,1.914,,,,,,images/l4.png,-4,-0.15,-0.01875,sabineLaf,001,2020-11-27_17h51.18.953,lm,2020.2.8,Win32,60,,,0,10,10,6,1
,,right,0.955,,,,,,images/r4.png,4,-0.3,-0.0375,sabineLaf,001,2020-11-27_17h51.18.953,lm,2020.2.8,Win32,60,,,0,11,11,35,1
,,right,1.188,,,,,,images/r1.png,1,0.3,0.0375,sabineLaf,001,2020-11-27_17h51.18.953,lm,2020.2.8,Win32,60,,,0,12,12,29,1
,,right,2.83,,,,,,images/r1.png,1,-0.3,-0.0375,sabineLaf,001,2020-11-27_17h51.18.953,lm,2020.2.8,Win32,60,,,0,13,13,25,1
,,left,1.828,,,,,,images/l2.png,-2,0.3,0.0375,sabineLaf,001,2020-11-27_17h51.18.953,lm,2020.2.8,Win32,60,,,0,14,14,14,1
,,left,2.054,,,,,,images/r2.png,2,0.15,0.01875,sabineLaf,001,2020-11-27_17h51.18.953,lm,2020.2.8,Win32,60,,,0,15,15,33,1
,,right,0.943,,,,,,images/r4.png,4,0.15,0.01875,sabineLaf,001,2020-11-27_17h51.18.953,lm,2020.2.8,Win32,60,,,0,16,16,38,1
,,left,1.984,,,,,,images/0.png,0,0.15,0.01875,sabineLaf,001,2020-11-27_17h51.18.953,lm,2020.2.8,Win32,60,,,0,17,17,23,1
,,left,1.522,,,,,,images/l4.png,-4,-0.3,-0.0375,sabineLaf,001,2020-11-27_17h51.18.953,lm,2020.2.8,Win32,60,,,0,18,18,5,1
,,right,1.295,,,,,,images/l1.png,-1,0,0,sabineLaf,001,2020-11-27_17h51.18.953,lm,2020.2.8,Win32,60,,,0,19,19,17,1
,,left,2.101,,,,,,images/l4.png,-4,0.15,0.01875,sabineLaf,001,2020-11-27_17h51.18.953,lm,2020.2.8,Win32,60,,,0,20,20,8,1
,,right,0.808,,,,,,images/r8.png,8,-0.15,-0.01875,sabineLaf,001,2020-11-27_17h51.18.953,lm,2020.2.8,Win32,60,,,0,21,21,41,1
,,right,1.962,,,,,,images/l4.png,-4,0.3,0.0375,sabineLaf,001,2020-11-27_17h51.18.953,lm,2020.2.8,Win32,60,,,0,22,22,9,1
,,right,2.362,,,,,,images/l1.png,-1,0.15,0.01875,sabineLaf,001,2020-11-27_17h51.18.953,lm,2020.2.8,Win32,60,,,0,23,23,18,1
,,right,1.235,,,,,,images/0.png,0,0.3,0.0375,sabineLaf,001,2020-11-27_17h51.18.953,lm,2020.2.8,Win32,60,,,0,24,24,24,1
,,right,1.505,,,,,,images/r1.png,1,0,0,sabineLaf,001,2020-11-27_17h51.18.953,lm,2020.2.8,Win32,60,,,0,25,25,27,1
,,right,0.743,,,,,,images/r8.png,8,-0.3,-0.0375,sabineLaf,001,2020-11-27_17h51.18.953,lm,2020.2.8,Win32,60,,,0,26,26,40,1
,,right,1.123,,,,,,images/r8.png,8,0.15,0.01875,sabineLaf,001,2020-11-27_17h51.18.953,lm,2020.2.8,Win32,60,,,0,27,27,43,1
,,left,1.43,,,,,,images/l2.png,-2,0.15,0.01875,sabineLaf,001,2020-11-27_17h51.18.953,lm,2020.2.8,Win32,60,,,0,28,28,13,1
,,left,2.505,,,,,,images/l1.png,-1,-0.3,-0.0375,sabineLaf,001,2020-11-27_17h51.18.953,lm,2020.2.8,Win32,60,,,0,29,29,15,1
,,left,1.85,,,,,,images/l4.png,-4,0,0,sabineLaf,001,2020-11-27_17h51.18.953,lm,2020.2.8,Win32,60,,,0,30,30,7,1
,,right,1.423,,,,,,images/r4.png,4,0,0,sabineLaf,001,2020-11-27_17h51.18.953,lm,2020.2.8,Win32,60,,,0,31,31,37,1
,,right,0.852,,,,,,images/0.png,0,-0.15,-0.01875,sabineLaf,001,2020-11-27_17h51.18.953,lm,2020.2.8,Win32,60,,,0,32,32,21,1
,,left,2.534,,,,,,images/r1.png,1,0.15,0.01875,sabineLaf,001,2020-11-27_17h51.18.953,lm,2020.2.8,Win32,60,,,0,33,33,28,1
,,left,1.724,,,,,,images/l2.png,-2,-0.15,-0.01875,sabineLaf,001,2020-11-27_17h51.18.953,lm,2020.2.8,Win32,60,,,0,34,34,11,1
,,right,1.115,,,,,,images/r8.png,8,0.3,0.0375,sabineLaf,001,2020-11-27_17h51.18.953,lm,2020.2.8,Win32,60,,,0,35,35,44,1
,,right,1.746,,,,,,images/r1.png,1,-0.15,-0.01875,sabineLaf,001,2020-11-27_17h51.18.953,lm,2020.2.8,Win32,60,,,0,36,36,26,1
,,right,1.966,,,,,,images/r2.png,2,0.3,0.0375,sabineLaf,001,2020-11-27_17h51.18.953,lm,2020.2.8,Win32,60,,,0,37,37,34,1
,,right,2.341,,,,,,images/r2.png,2,-0.15,-0.01875,sabineLaf,001,2020-11-27_17h51.18.953,lm,2020.2.8,Win32,60,,,0,38,38,31,1
,,right,1.144,,,,,,images/r4.png,4,-0.15,-0.01875,sabineLaf,001,2020-11-27_17h51.18.953,lm,2020.2.8,Win32,60,,,0,39,39,36,1
,,right,1.192,,,,,,images/r4.png,4,0.3,0.0375,sabineLaf,001,2020-11-27_17h51.18.953,lm,2020.2.8,Win32,60,,,0,40,40,39,1
,,right,2.974,,,,,,images/r2.png,2,-0.3,-0.0375,sabineLaf,001,2020-11-27_17h51.18.953,lm,2020.2.8,Win32,60,,,0,41,41,30,1
,,left,2.685,,,,,,images/0.png,0,-0.3,-0.0375,sabineLaf,001,2020-11-27_17h51.18.953,lm,2020.2.8,Win32,60,,,0,42,42,20,1
,,left,0.94,,,,,,images/l8.png,-8,0.15,0.01875,sabineLaf,001,2020-11-27_17h51.18.953,lm,2020.2.8,Win32,60,,,0,43,43,3,1
,,left,1.51,,,,,,images/l8.png,-8,-0.3,-0.0375,sabineLaf,001,2020-11-27_17h51.18.953,lm,2020.2.8,Win32,60,,,0,44,44,0,1
,,left,1.961,,,,,,images/r4.png,4,0.15,0.01875,sabineLaf,001,2020-11-27_17h51.18.953,lm,2020.2.8,Win32,60,,,1,0,45,38,1
,,left,1.389,,,,,,images/l2.png,-2,-0.3,-0.0375,sabineLaf,001,2020-11-27_17h51.18.953,lm,2020.2.8,Win32,60,,,1,1,46,10,1
,,right,1.959,,,,,,images/r1.png,1,-0.3,-0.0375,sabineLaf,001,2020-11-27_17h51.18.953,lm,2020.2.8,Win32,60,,,1,2,47,25,1
,,left,1.453,,,,,,images/l2.png,-2,0.15,0.01875,sabineLaf,001,2020-11-27_17h51.18.953,lm,2020.2.8,Win32,60,,,1,3,48,13,1
,,right,2.025,,,,,,images/r4.png,4,0,0,sabineLaf,001,2020-11-27_17h51.18.953,lm,2020.2.8,Win32,60,,,1,4,49,37,1
,,left,2.924,,,,,,images/r1.png,1,-0.15,-0.01875,sabineLaf,001,2020-11-27_17h51.18.953,lm,2020.2.8,Win32,60,,,1,5,50,26,1
,,left,1.986,,,,,,images/0.png,0,0,0,sabineLaf,001,2020-11-27_17h51.18.953,lm,2020.2.8,Win32,60,,,1,6,51,22,1
,,left,2.637,,,,,,images/l1.png,-1,-0.15,-0.01875,sabineLaf,001,2020-11-27_17h51.18.953,lm,2020.2.8,Win32,60,,,1,7,52,16,1
,,left,1.99,,,,,,images/l1.png,-1,-0.3,-0.0375,sabineLaf,001,2020-11-27_17h51.18.953,lm,2020.2.8,Win32,60,,,1,8,53,15,1
,,right,2.63,,,,,,images/r8.png,8,0,0,sabineLaf,001,2020-11-27_17h51.18.953,lm,2020.2.8,Win32,60,,,1,9,54,42,1
,,right,3.63,,,,,,images/0.png,0,0.3,0.0375,sabineLaf,001,2020-11-27_17h51.18.953,lm,2020.2.8,Win32,60,,,1,10,55,24,1
,,left,1.925,,,,,,images/l2.png,-2,0.3,0.0375,sabineLaf,001,2020-11-27_17h51.18.953,lm,2020.2.8,Win32,60,,,1,11,56,14,1
,,right,1.559,,,,,,images/r2.png,2,0.15,0.01875,sabineLaf,001,2020-11-27_17h51.18.953,lm,2020.2.8,Win32,60,,,1,12,57,33,1
,,right,1.39,,,,,,images/r8.png,8,0.3,0.0375,sabineLaf,001,2020-11-27_17h51.18.953,lm,2020.2.8,Win32,60,,,1,13,58,44,1
,,left,0.836,,,,,,images/l8.png,-8,0.15,0.01875,sabineLaf,001,2020-11-27_17h51.18.953,lm,2020.2.8,Win32,60,,,1,14,59,3,1
,,right,1.284,,,,,,images/r4.png,4,-0.3,-0.0375,sabineLaf,001,2020-11-27_17h51.18.953,lm,2020.2.8,Win32,60,,,1,15,60,35,1
,,right,2.284,,,,,,images/r2.png,2,0,0,sabineLaf,001,2020-11-27_17h51.18.953,lm,2020.2.8,Win32,60,,,1,16,61,32,1
,,left,2.035,,,,,,images/l4.png,-4,0.3,0.0375,sabineLaf,001,2020-11-27_17h51.18.953,lm,2020.2.8,Win32,60,,,1,17,62,9,1
,,left,1.653,,,,,,images/l4.png,-4,-0.3,-0.0375,sabineLaf,001,2020-11-27_17h51.18.953,lm,2020.2.8,Win32,60,,,1,18,63,5,1
,,left,1.247,,,,,,images/l2.png,-2,0,0,sabineLaf,001,2020-11-27_17h51.18.953,lm,2020.2.8,Win32,60,,,1,19,64,12,1
,,left,2.296,,,,,,images/0.png,0,0.15,0.01875,sabineLaf,001,2020-11-27_17h51.18.953,lm,2020.2.8,Win32,60,,,1,20,65,23,1
,,left,1.028,,,,,,images/l8.png,-8,0.3,0.0375,sabineLaf,001,2020-11-27_17h51.18.953,lm,2020.2.8,Win32,60,,,1,21,66,4,1
,,left,2.877,,,,,,images/0.png,0,-0.15,-0.01875,sabineLaf,001,2020-11-27_17h51.18.953,lm,2020.2.8,Win32,60,,,1,22,67,21,1
,,left,2.639,,,,,,images/l1.png,-1,0.15,0.01875,sabineLaf,001,2020-11-27_17h51.18.953,lm,2020.2.8,Win32,60,,,1,23,68,18,1
,,left,2.616,,,,,,images/l1.png,-1,0,0,sabineLaf,001,2020-11-27_17h51.18.953,lm,2020.2.8,Win32,60,,,1,24,69,17,1
,,right,2.187,,,,,,images/r2.png,2,-0.3,-0.0375,sabineLaf,001,2020-11-27_17h51.18.953,lm,2020.2.8,Win32,60,,,1,25,70,30,1
,,right,0.903,,,,,,images/r8.png,8,-0.15,-0.01875,sabineLaf,001,2020-11-27_17h51.18.953,lm,2020.2.8,Win32,60,,,1,26,71,41,1
,,left,1.557,,,,,,images/l1.png,-1,0.3,0.0375,sabineLaf,001,2020-11-27_17h51.18.953,lm,2020.2.8,Win32,60,,,1,27,72,19,1
,,left,1.635,,,,,,images/l8.png,-8,-0.3,-0.0375,sabineLaf,001,2020-11-27_17h51.18.953,lm,2020.2.8,Win32,60,,,1,28,73,0,1
,,left,2.241,,,,,,images/0.png,0,-0.3,-0.0375,sabineLaf,001,2020-11-27_17h51.18.953,lm,2020.2.8,Win32,60,,,1,29,74,20,1
,,right,2.553,,,,,,images/r1.png,1,0,0,sabineLaf,001,2020-11-27_17h51.18.953,lm,2020.2.8,Win32,60,,,1,30,75,27,1
,,left,2.868,,,,,,images/r2.png,2,0.3,0.0375,sabineLaf,001,2020-11-27_17h51.18.953,lm,2020.2.8,Win32,60,,,1,31,76,34,1
,,left,1.961,,,,,,images/l4.png,-4,0,0,sabineLaf,001,2020-11-27_17h51.18.953,lm,2020.2.8,Win32,60,,,1,32,77,7,1
,,left,2.925,,,,,,images/r2.png,2,-0.15,-0.01875,sabineLaf,001,2020-11-27_17h51.18.953,lm,2020.2.8,Win32,60,,,1,33,78,31,1
,,left,1.717,,,,,,images/l8.png,-8,0,0,sabineLaf,001,2020-11-27_17h51.18.953,lm,2020.2.8,Win32,60,,,1,34,79,2,1
,,left,1.099,,,,,,images/l4.png,-4,0.15,0.01875,sabineLaf,001,2020-11-27_17h51.18.953,lm,2020.2.8,Win32,60,,,1,35,80,8,1
,,left,1.49,,,,,,images/r1.png,1,0.3,0.0375,sabineLaf,001,2020-11-27_17h51.18.953,lm,2020.2.8,Win32,60,,,1,36,81,29,1
,,left,2.26,,,,,,images/l2.png,-2,-0.15,-0.01875,sabineLaf,001,2020-11-27_17h51.18.953,lm,2020.2.8,Win32,60,,,1,37,82,11,1
,,left,1.9,,,,,,images/l4.png,-4,-0.15,-0.01875,sabineLaf,001,2020-11-27_17h51.18.953,lm,2020.2.8,Win32,60,,,1,38,83,6,1
,,left,1.427,,,,,,images/l8.png,-8,-0.15,-0.01875,sabineLaf,001,2020-11-27_17h51.18.953,lm,2020.2.8,Win32,60,,,1,39,84,1,1
,,right,2.206,,,,,,images/r8.png,8,0.15,0.01875,sabineLaf,001,2020-11-27_17h51.18.953,lm,2020.2.8,Win32,60,,,1,40,85,43,1
,,right,2.89,,,,,,images/r1.png,1,0.15,0.01875,sabineLaf,001,2020-11-27_17h51.18.953,lm,2020.2.8,Win32,60,,,1,41,86,28,1
,,right,1.231,,,,,,images/r4.png,4,0.3,0.0375,sabineLaf,001,2020-11-27_17h51.18.953,lm,2020.2.8,Win32,60,,,1,42,87,39,1
,,right,1.838,,,,,,images/r8.png,8,-0.3,-0.0375,sabineLaf,001,2020-11-27_17h51.18.953,lm,2020.2.8,Win32,60,,,1,43,88,40,1
,,right,1.422,,,,,,images/r4.png,4,-0.15,-0.01875,sabineLaf,001,2020-11-27_17h51.18.953,lm,2020.2.8,Win32,60,,,1,44,89,36,1
