resp_txt.keys,resp_txt.rt,resp.keys,resp.rt,trials_training.thisRepN,trials_training.thisTrialN,trials_training.thisN,trials_training.thisIndex,trials_training.ran,line_file,offset,jitter_x_cm,jitter_x_norm,participant,session,date,expName,psychopyVersion,OS,frameRate,key_resp_after_training.keys,key_resp_after_training.rt,trials.thisRepN,trials.thisTrialN,trials.thisN,trials.thisIndex,trials.ran
space,145.106,left,2.511,0,0,0,0,1,images/l8.png,-8,-0.3,-0.0375,marcLaf,001,2020-11-27_19h17.09.406,lm,2020.2.8,Win32,60,,,,,,,
,,left,1.927,0,1,1,4,1,images/l2.png,-2,-0.15,-0.01875,marcLaf,001,2020-11-27_19h17.09.406,lm,2020.2.8,Win32,60,,,,,,,
,,left,37.577,0,2,2,9,1,images/r2.png,2,-0.15,-0.01875,marcLaf,001,2020-11-27_19h17.09.406,lm,2020.2.8,Win32,60,,,,,,,
,,left,2.435,0,3,3,3,1,images/l2.png,-2,-0.3,-0.0375,marcLaf,001,2020-11-27_19h17.09.406,lm,2020.2.8,Win32,60,,,,,,,
,,left,2.042,0,4,4,2,1,images/l4.png,-4,-0.15,-0.01875,marcLaf,001,2020-11-27_19h17.09.406,lm,2020.2.8,Win32,60,,,,,,,
,,right,6.658,0,5,5,8,1,images/r1.png,1,0.3,0.0375,marcLaf,001,2020-11-27_19h17.09.406,lm,2020.2.8,Win32,60,,,,,,,
,,left,0.933,0,6,6,5,1,images/l2.png,-2,0.15,0.01875,marcLaf,001,2020-11-27_19h17.09.406,lm,2020.2.8,Win32,60,,,,,,,
,,right,0.706,0,7,7,12,1,images/r8.png,8,0,0,marcLaf,001,2020-11-27_19h17.09.406,lm,2020.2.8,Win32,60,,,,,,,
,,left,0.807,0,8,8,1,1,images/l8.png,-8,0,0,marcLaf,001,2020-11-27_19h17.09.406,lm,2020.2.8,Win32,60,,,,,,,
,,left,1.851,0,9,9,6,1,images/l1.png,-1,0.3,0.0375,marcLaf,001,2020-11-27_19h17.09.406,lm,2020.2.8,Win32,60,,,,,,,
,,right,2.461,0,10,10,11,1,images/r4.png,4,-0.3,-0.0375,marcLaf,001,2020-11-27_19h17.09.406,lm,2020.2.8,Win32,60,,,,,,,
,,right,0.756,0,11,11,10,1,images/r2.png,2,0.15,0.01875,marcLaf,001,2020-11-27_19h17.09.406,lm,2020.2.8,Win32,60,,,,,,,
,,left,1.589,0,12,12,7,1,images/0.png,0,-0.15,-0.01875,marcLaf,001,2020-11-27_19h17.09.406,lm,2020.2.8,Win32,60,,,,,,,
,,right,0.913,0,13,13,13,1,images/r8.png,8,0.3,0.0375,marcLaf,001,2020-11-27_19h17.09.406,lm,2020.2.8,Win32,60,,,,,,,
,,right,2.067,,,,,,images/r2.png,2,0.15,0.01875,marcLaf,001,2020-11-27_19h17.09.406,lm,2020.2.8,Win32,60,space,10.526,0,0,0,33,1
,,left,1.44,,,,,,images/l2.png,-2,0,0,marcLaf,001,2020-11-27_19h17.09.406,lm,2020.2.8,Win32,60,,,0,1,1,12,1
,,left,0.876,,,,,,images/l1.png,-1,0,0,marcLaf,001,2020-11-27_19h17.09.406,lm,2020.2.8,Win32,60,,,0,2,2,17,1
,,left,0.527,,,,,,images/l8.png,-8,0.15,0.01875,marcLaf,001,2020-11-27_19h17.09.406,lm,2020.2.8,Win32,60,,,0,3,3,3,1
,,left,0.938,,,,,,images/0.png,0,-0.15,-0.01875,marcLaf,001,2020-11-27_19h17.09.406,lm,2020.2.8,Win32,60,,,0,4,4,21,1
,,left,1.155,,,,,,images/0.png,0,0.15,0.01875,marcLaf,001,2020-11-27_19h17.09.406,lm,2020.2.8,Win32,60,,,0,5,5,23,1
,,right,0.802,,,,,,images/r8.png,8,-0.3,-0.0375,marcLaf,001,2020-11-27_19h17.09.406,lm,2020.2.8,Win32,60,,,0,6,6,40,1
,,right,1.057,,,,,,images/r2.png,2,-0.3,-0.0375,marcLaf,001,2020-11-27_19h17.09.406,lm,2020.2.8,Win32,60,,,0,7,7,30,1
,,left,1.158,,,,,,images/r2.png,2,0.3,0.0375,marcLaf,001,2020-11-27_19h17.09.406,lm,2020.2.8,Win32,60,,,0,8,8,34,1
,,left,1.584,,,,,,images/l2.png,-2,0.15,0.01875,marcLaf,001,2020-11-27_19h17.09.406,lm,2020.2.8,Win32,60,,,0,9,9,13,1
,,right,1.812,,,,,,images/r1.png,1,-0.15,-0.01875,marcLaf,001,2020-11-27_19h17.09.406,lm,2020.2.8,Win32,60,,,0,10,10,26,1
,,right,0.799,,,,,,images/r4.png,4,-0.3,-0.0375,marcLaf,001,2020-11-27_19h17.09.406,lm,2020.2.8,Win32,60,,,0,11,11,35,1
,,left,1.074,,,,,,images/l4.png,-4,-0.15,-0.01875,marcLaf,001,2020-11-27_19h17.09.406,lm,2020.2.8,Win32,60,,,0,12,12,6,1
,,left,0.774,,,,,,images/l8.png,-8,0.3,0.0375,marcLaf,001,2020-11-27_19h17.09.406,lm,2020.2.8,Win32,60,,,0,13,13,4,1
,,left,0.963,,,,,,images/l4.png,-4,0.3,0.0375,marcLaf,001,2020-11-27_19h17.09.406,lm,2020.2.8,Win32,60,,,0,14,14,9,1
,,left,1.396,,,,,,images/r1.png,1,0,0,marcLaf,001,2020-11-27_19h17.09.406,lm,2020.2.8,Win32,60,,,0,15,15,27,1
,,right,0.668,,,,,,images/r8.png,8,-0.15,-0.01875,marcLaf,001,2020-11-27_19h17.09.406,lm,2020.2.8,Win32,60,,,0,16,16,41,1
,,left,1.173,,,,,,images/l1.png,-1,0.15,0.01875,marcLaf,001,2020-11-27_19h17.09.406,lm,2020.2.8,Win32,60,,,0,17,17,18,1
,,left,1.528,,,,,,images/l1.png,-1,-0.3,-0.0375,marcLaf,001,2020-11-27_19h17.09.406,lm,2020.2.8,Win32,60,,,0,18,18,15,1
,,left,1.233,,,,,,images/r4.png,4,0,0,marcLaf,001,2020-11-27_19h17.09.406,lm,2020.2.8,Win32,60,,,0,19,19,37,1
,,right,1.699,,,,,,images/r1.png,1,-0.3,-0.0375,marcLaf,001,2020-11-27_19h17.09.406,lm,2020.2.8,Win32,60,,,0,20,20,25,1
,,left,0.61,,,,,,images/l8.png,-8,-0.15,-0.01875,marcLaf,001,2020-11-27_19h17.09.406,lm,2020.2.8,Win32,60,,,0,21,21,1,1
,,left,0.913,,,,,,images/0.png,0,0,0,marcLaf,001,2020-11-27_19h17.09.406,lm,2020.2.8,Win32,60,,,0,22,22,22,1
,,left,1.162,,,,,,images/l8.png,-8,-0.3,-0.0375,marcLaf,001,2020-11-27_19h17.09.406,lm,2020.2.8,Win32,60,,,0,23,23,0,1
,,right,1.34,,,,,,images/r8.png,8,0,0,marcLaf,001,2020-11-27_19h17.09.406,lm,2020.2.8,Win32,60,,,0,24,24,42,1
,,right,1.09,,,,,,images/0.png,0,-0.3,-0.0375,marcLaf,001,2020-11-27_19h17.09.406,lm,2020.2.8,Win32,60,,,0,25,25,20,1
,,right,1.027,,,,,,images/r8.png,8,0.15,0.01875,marcLaf,001,2020-11-27_19h17.09.406,lm,2020.2.8,Win32,60,,,0,26,26,43,1
,,left,0.911,,,,,,images/l4.png,-4,0.15,0.01875,marcLaf,001,2020-11-27_19h17.09.406,lm,2020.2.8,Win32,60,,,0,27,27,8,1
,,left,0.677,,,,,,images/l4.png,-4,-0.3,-0.0375,marcLaf,001,2020-11-27_19h17.09.406,lm,2020.2.8,Win32,60,,,0,28,28,5,1
,,left,0.792,,,,,,images/r2.png,2,-0.15,-0.01875,marcLaf,001,2020-11-27_19h17.09.406,lm,2020.2.8,Win32,60,,,0,29,29,31,1
,,left,0.49,,,,,,images/l4.png,-4,0,0,marcLaf,001,2020-11-27_19h17.09.406,lm,2020.2.8,Win32,60,,,0,30,30,7,1
,,left,0.98,,,,,,images/0.png,0,0.3,0.0375,marcLaf,001,2020-11-27_19h17.09.406,lm,2020.2.8,Win32,60,,,0,31,31,24,1
,,left,0.985,,,,,,images/r1.png,1,0.15,0.01875,marcLaf,001,2020-11-27_19h17.09.406,lm,2020.2.8,Win32,60,,,0,32,32,28,1
,,left,0.568,,,,,,images/l8.png,-8,0,0,marcLaf,001,2020-11-27_19h17.09.406,lm,2020.2.8,Win32,60,,,0,33,33,2,1
,,right,0.902,,,,,,images/r8.png,8,0.3,0.0375,marcLaf,001,2020-11-27_19h17.09.406,lm,2020.2.8,Win32,60,,,0,34,34,44,1
,,left,1.096,,,,,,images/l2.png,-2,0.3,0.0375,marcLaf,001,2020-11-27_19h17.09.406,lm,2020.2.8,Win32,60,,,0,35,35,14,1
,,left,1.118,,,,,,images/l2.png,-2,-0.3,-0.0375,marcLaf,001,2020-11-27_19h17.09.406,lm,2020.2.8,Win32,60,,,0,36,36,10,1
,,left,0.914,,,,,,images/r4.png,4,0.3,0.0375,marcLaf,001,2020-11-27_19h17.09.406,lm,2020.2.8,Win32,60,,,0,37,37,39,1
,,left,0.928,,,,,,images/r1.png,1,0.3,0.0375,marcLaf,001,2020-11-27_19h17.09.406,lm,2020.2.8,Win32,60,,,0,38,38,29,1
,,right,0.91,,,,,,images/r4.png,4,-0.15,-0.01875,marcLaf,001,2020-11-27_19h17.09.406,lm,2020.2.8,Win32,60,,,0,39,39,36,1
,,right,0.842,,,,,,images/r4.png,4,0.15,0.01875,marcLaf,001,2020-11-27_19h17.09.406,lm,2020.2.8,Win32,60,,,0,40,40,38,1
,,left,0.88,,,,,,images/l1.png,-1,0.3,0.0375,marcLaf,001,2020-11-27_19h17.09.406,lm,2020.2.8,Win32,60,,,0,41,41,19,1
,,left,1.067,,,,,,images/l2.png,-2,-0.15,-0.01875,marcLaf,001,2020-11-27_19h17.09.406,lm,2020.2.8,Win32,60,,,0,42,42,11,1
,,left,0.877,,,,,,images/r2.png,2,0,0,marcLaf,001,2020-11-27_19h17.09.406,lm,2020.2.8,Win32,60,,,0,43,43,32,1
,,left,0.841,,,,,,images/l1.png,-1,-0.15,-0.01875,marcLaf,001,2020-11-27_19h17.09.406,lm,2020.2.8,Win32,60,,,0,44,44,16,1
,,left,0.886,,,,,,images/r2.png,2,0.15,0.01875,marcLaf,001,2020-11-27_19h17.09.406,lm,2020.2.8,Win32,60,,,1,0,45,33,1
,,right,1.402,,,,,,images/r4.png,4,0.15,0.01875,marcLaf,001,2020-11-27_19h17.09.406,lm,2020.2.8,Win32,60,,,1,1,46,38,1
,,left,1.344,,,,,,images/r2.png,2,-0.15,-0.01875,marcLaf,001,2020-11-27_19h17.09.406,lm,2020.2.8,Win32,60,,,1,2,47,31,1
,,left,0.798,,,,,,images/r1.png,1,-0.15,-0.01875,marcLaf,001,2020-11-27_19h17.09.406,lm,2020.2.8,Win32,60,,,1,3,48,26,1
,,left,0.834,,,,,,images/l4.png,-4,0,0,marcLaf,001,2020-11-27_19h17.09.406,lm,2020.2.8,Win32,60,,,1,4,49,7,1
,,right,0.891,,,,,,images/r4.png,4,-0.3,-0.0375,marcLaf,001,2020-11-27_19h17.09.406,lm,2020.2.8,Win32,60,,,1,5,50,35,1
,,left,0.905,,,,,,images/0.png,0,-0.15,-0.01875,marcLaf,001,2020-11-27_19h17.09.406,lm,2020.2.8,Win32,60,,,1,6,51,21,1
,,left,0.738,,,,,,images/l1.png,-1,-0.15,-0.01875,marcLaf,001,2020-11-27_19h17.09.406,lm,2020.2.8,Win32,60,,,1,7,52,16,1
,,left,0.644,,,,,,images/l8.png,-8,0,0,marcLaf,001,2020-11-27_19h17.09.406,lm,2020.2.8,Win32,60,,,1,8,53,2,1
,,left,1.164,,,,,,images/r4.png,4,0.3,0.0375,marcLaf,001,2020-11-27_19h17.09.406,lm,2020.2.8,Win32,60,,,1,9,54,39,1
,,left,0.993,,,,,,images/r2.png,2,0,0,marcLaf,001,2020-11-27_19h17.09.406,lm,2020.2.8,Win32,60,,,1,10,55,32,1
,,left,0.812,,,,,,images/0.png,0,0.3,0.0375,marcLaf,001,2020-11-27_19h17.09.406,lm,2020.2.8,Win32,60,,,1,11,56,24,1
,,left,0.791,,,,,,images/l4.png,-4,0.15,0.01875,marcLaf,001,2020-11-27_19h17.09.406,lm,2020.2.8,Win32,60,,,1,12,57,8,1
,,left,0.983,,,,,,images/l1.png,-1,0.3,0.0375,marcLaf,001,2020-11-27_19h17.09.406,lm,2020.2.8,Win32,60,,,1,13,58,19,1
,,left,1.073,,,,,,images/l8.png,-8,-0.15,-0.01875,marcLaf,001,2020-11-27_19h17.09.406,lm,2020.2.8,Win32,60,,,1,14,59,1,1
,,left,0.73,,,,,,images/l4.png,-4,-0.15,-0.01875,marcLaf,001,2020-11-27_19h17.09.406,lm,2020.2.8,Win32,60,,,1,15,60,6,1
,,left,0.825,,,,,,images/r1.png,1,0,0,marcLaf,001,2020-11-27_19h17.09.406,lm,2020.2.8,Win32,60,,,1,16,61,27,1
,,right,0.746,,,,,,images/r8.png,8,0.3,0.0375,marcLaf,001,2020-11-27_19h17.09.406,lm,2020.2.8,Win32,60,,,1,17,62,44,1
,,right,0.478,,,,,,images/r8.png,8,-0.15,-0.01875,marcLaf,001,2020-11-27_19h17.09.406,lm,2020.2.8,Win32,60,,,1,18,63,41,1
,,right,0.778,,,,,,images/r2.png,2,-0.3,-0.0375,marcLaf,001,2020-11-27_19h17.09.406,lm,2020.2.8,Win32,60,,,1,19,64,30,1
,,right,0.939,,,,,,images/r8.png,8,0.15,0.01875,marcLaf,001,2020-11-27_19h17.09.406,lm,2020.2.8,Win32,60,,,1,20,65,43,1
,,left,0.914,,,,,,images/r2.png,2,0.3,0.0375,marcLaf,001,2020-11-27_19h17.09.406,lm,2020.2.8,Win32,60,,,1,21,66,34,1
,,right,0.66,,,,,,images/r8.png,8,-0.3,-0.0375,marcLaf,001,2020-11-27_19h17.09.406,lm,2020.2.8,Win32,60,,,1,22,67,40,1
,,right,0.994,,,,,,images/l1.png,-1,-0.3,-0.0375,marcLaf,001,2020-11-27_19h17.09.406,lm,2020.2.8,Win32,60,,,1,23,68,15,1
,,left,0.84,,,,,,images/r1.png,1,0.3,0.0375,marcLaf,001,2020-11-27_19h17.09.406,lm,2020.2.8,Win32,60,,,1,24,69,29,1
,,left,0.679,,,,,,images/l1.png,-1,0.15,0.01875,marcLaf,001,2020-11-27_19h17.09.406,lm,2020.2.8,Win32,60,,,1,25,70,18,1
,,left,0.561,,,,,,images/l8.png,-8,0.15,0.01875,marcLaf,001,2020-11-27_19h17.09.406,lm,2020.2.8,Win32,60,,,1,26,71,3,1
,,left,0.876,,,,,,images/l1.png,-1,0,0,marcLaf,001,2020-11-27_19h17.09.406,lm,2020.2.8,Win32,60,,,1,27,72,17,1
,,left,0.588,,,,,,images/l8.png,-8,0.3,0.0375,marcLaf,001,2020-11-27_19h17.09.406,lm,2020.2.8,Win32,60,,,1,28,73,4,1
,,left,0.959,,,,,,images/r1.png,1,0.15,0.01875,marcLaf,001,2020-11-27_19h17.09.406,lm,2020.2.8,Win32,60,,,1,29,74,28,1
,,left,0.869,,,,,,images/l2.png,-2,0,0,marcLaf,001,2020-11-27_19h17.09.406,lm,2020.2.8,Win32,60,,,1,30,75,12,1
,,left,0.976,,,,,,images/0.png,0,-0.3,-0.0375,marcLaf,001,2020-11-27_19h17.09.406,lm,2020.2.8,Win32,60,,,1,31,76,20,1
,,left,0.746,,,,,,images/l2.png,-2,-0.15,-0.01875,marcLaf,001,2020-11-27_19h17.09.406,lm,2020.2.8,Win32,60,,,1,32,77,11,1
,,left,0.899,,,,,,images/r4.png,4,0,0,marcLaf,001,2020-11-27_19h17.09.406,lm,2020.2.8,Win32,60,,,1,33,78,37,1
,,left,1.158,,,,,,images/l4.png,-4,-0.3,-0.0375,marcLaf,001,2020-11-27_19h17.09.406,lm,2020.2.8,Win32,60,,,1,34,79,5,1
,,left,0.79,,,,,,images/l2.png,-2,0.15,0.01875,marcLaf,001,2020-11-27_19h17.09.406,lm,2020.2.8,Win32,60,,,1,35,80,13,1
,,left,0.665,,,,,,images/l2.png,-2,0.3,0.0375,marcLaf,001,2020-11-27_19h17.09.406,lm,2020.2.8,Win32,60,,,1,36,81,14,1
,,right,0.747,,,,,,images/r8.png,8,0,0,marcLaf,001,2020-11-27_19h17.09.406,lm,2020.2.8,Win32,60,,,1,37,82,42,1
,,right,0.746,,,,,,images/r4.png,4,-0.15,-0.01875,marcLaf,001,2020-11-27_19h17.09.406,lm,2020.2.8,Win32,60,,,1,38,83,36,1
,,left,0.564,,,,,,images/l8.png,-8,-0.3,-0.0375,marcLaf,001,2020-11-27_19h17.09.406,lm,2020.2.8,Win32,60,,,1,39,84,0,1
,,left,0.636,,,,,,images/0.png,0,0.15,0.01875,marcLaf,001,2020-11-27_19h17.09.406,lm,2020.2.8,Win32,60,,,1,40,85,23,1
,,left,0.73,,,,,,images/0.png,0,0,0,marcLaf,001,2020-11-27_19h17.09.406,lm,2020.2.8,Win32,60,,,1,41,86,22,1
,,left,0.897,,,,,,images/l4.png,-4,0.3,0.0375,marcLaf,001,2020-11-27_19h17.09.406,lm,2020.2.8,Win32,60,,,1,42,87,9,1
,,left,0.943,,,,,,images/l2.png,-2,-0.3,-0.0375,marcLaf,001,2020-11-27_19h17.09.406,lm,2020.2.8,Win32,60,,,1,43,88,10,1
,,left,0.804,,,,,,images/r1.png,1,-0.3,-0.0375,marcLaf,001,2020-11-27_19h17.09.406,lm,2020.2.8,Win32,60,,,1,44,89,25,1
