resp_txt.keys,resp_txt.rt,resp.keys,resp.rt,trials_training.thisRepN,trials_training.thisTrialN,trials_training.thisN,trials_training.thisIndex,trials_training.ran,line_file,offset,participant,session,date,expName,psychopyVersion,OS,frameRate,key_resp_after_training.keys,key_resp_after_training.rt,trials.thisRepN,trials.thisTrialN,trials.thisN,trials.thisIndex,trials.ran
space,15.934,o,0.472,0,0,0,17,1,images/7.png,7,01,001,2020-12-02_10h01.53.252,lm,2020.2.8,Win32,60,,,,,,,
,,o,0.518,0,1,1,13,1,images/3.png,3,01,001,2020-12-02_10h01.53.252,lm,2020.2.8,Win32,60,,,,,,,
,,o,0.419,0,2,2,20,1,images/10.png,10,01,001,2020-12-02_10h01.53.252,lm,2020.2.8,Win32,60,,,,,,,
,,o,0.885,0,3,3,10,1,images/0.png,0,01,001,2020-12-02_10h01.53.252,lm,2020.2.8,Win32,60,,,,,,,
,,o,0.486,0,4,4,16,1,images/6.png,6,01,001,2020-12-02_10h01.53.252,lm,2020.2.8,Win32,60,,,,,,,
,,e,0.869,0,5,5,6,1,images/-4.png,-4,01,001,2020-12-02_10h01.53.252,lm,2020.2.8,Win32,60,,,,,,,
,,o,0.554,0,6,6,14,1,images/4.png,4,01,001,2020-12-02_10h01.53.252,lm,2020.2.8,Win32,60,,,,,,,
,,o,0.491,0,7,7,15,1,images/5.png,5,01,001,2020-12-02_10h01.53.252,lm,2020.2.8,Win32,60,,,,,,,
,,o,1.02,0,8,8,9,1,images/-1.png,-1,01,001,2020-12-02_10h01.53.252,lm,2020.2.8,Win32,60,,,,,,,
,,e,0.536,0,9,9,2,1,images/-8.png,-8,01,001,2020-12-02_10h01.53.252,lm,2020.2.8,Win32,60,,,,,,,
,,e,0.335,0,10,10,0,1,images/-10.png,-10,01,001,2020-12-02_10h01.53.252,lm,2020.2.8,Win32,60,,,,,,,
,,e,0.55,0,11,11,3,1,images/-7.png,-7,01,001,2020-12-02_10h01.53.252,lm,2020.2.8,Win32,60,,,,,,,
,,o,0.501,0,12,12,18,1,images/8.png,8,01,001,2020-12-02_10h01.53.252,lm,2020.2.8,Win32,60,,,,,,,
,,e,1.936,0,13,13,4,1,images/-6.png,-6,01,001,2020-12-02_10h01.53.252,lm,2020.2.8,Win32,60,,,,,,,
,,o,0.452,0,14,14,19,1,images/9.png,9,01,001,2020-12-02_10h01.53.252,lm,2020.2.8,Win32,60,,,,,,,
,,e,0.935,0,15,15,5,1,images/-5.png,-5,01,001,2020-12-02_10h01.53.252,lm,2020.2.8,Win32,60,,,,,,,
,,o,0.417,0,16,16,11,1,images/1.png,1,01,001,2020-12-02_10h01.53.252,lm,2020.2.8,Win32,60,,,,,,,
,,o,0.367,0,17,17,12,1,images/2.png,2,01,001,2020-12-02_10h01.53.252,lm,2020.2.8,Win32,60,,,,,,,
,,o,1.335,0,18,18,7,1,images/-3.png,-3,01,001,2020-12-02_10h01.53.252,lm,2020.2.8,Win32,60,,,,,,,
,,o,1.672,0,19,19,8,1,images/-2.png,-2,01,001,2020-12-02_10h01.53.252,lm,2020.2.8,Win32,60,,,,,,,
,,e,0.603,0,20,20,1,1,images/-9.png,-9,01,001,2020-12-02_10h01.53.252,lm,2020.2.8,Win32,60,,,,,,,
,,o,0.353,,,,,,images/7.png,7,01,001,2020-12-02_10h01.53.252,lm,2020.2.8,Win32,60,space,4.071,0,0,0,17,1
,,o,0.404,,,,,,images/5.png,5,01,001,2020-12-02_10h01.53.252,lm,2020.2.8,Win32,60,,,0,1,1,15,1
,,o,0.438,,,,,,images/4.png,4,01,001,2020-12-02_10h01.53.252,lm,2020.2.8,Win32,60,,,0,2,2,14,1
,,o,0.585,,,,,,images/8.png,8,01,001,2020-12-02_10h01.53.252,lm,2020.2.8,Win32,60,,,0,3,3,18,1
,,e,0.575,,,,,,images/-10.png,-10,01,001,2020-12-02_10h01.53.252,lm,2020.2.8,Win32,60,,,0,4,4,0,1
,,o,0.768,,,,,,images/3.png,3,01,001,2020-12-02_10h01.53.252,lm,2020.2.8,Win32,60,,,0,5,5,13,1
,,e,0.487,,,,,,images/-7.png,-7,01,001,2020-12-02_10h01.53.252,lm,2020.2.8,Win32,60,,,0,6,6,3,1
,,e,0.486,,,,,,images/-6.png,-6,01,001,2020-12-02_10h01.53.252,lm,2020.2.8,Win32,60,,,0,7,7,4,1
,,e,0.818,,,,,,images/-3.png,-3,01,001,2020-12-02_10h01.53.252,lm,2020.2.8,Win32,60,,,0,8,8,7,1
,,o,0.57,,,,,,images/2.png,2,01,001,2020-12-02_10h01.53.252,lm,2020.2.8,Win32,60,,,0,9,9,12,1
,,o,0.519,,,,,,images/6.png,6,01,001,2020-12-02_10h01.53.252,lm,2020.2.8,Win32,60,,,0,10,10,16,1
,,e,0.404,,,,,,images/-8.png,-8,01,001,2020-12-02_10h01.53.252,lm,2020.2.8,Win32,60,,,0,11,11,2,1
,,o,0.405,,,,,,images/10.png,10,01,001,2020-12-02_10h01.53.252,lm,2020.2.8,Win32,60,,,0,12,12,20,1
,,o,1.24,,,,,,images/0.png,0,01,001,2020-12-02_10h01.53.252,lm,2020.2.8,Win32,60,,,0,13,13,10,1
,,e,1.019,,,,,,images/-4.png,-4,01,001,2020-12-02_10h01.53.252,lm,2020.2.8,Win32,60,,,0,14,14,6,1
,,e,1.423,,,,,,images/-2.png,-2,01,001,2020-12-02_10h01.53.252,lm,2020.2.8,Win32,60,,,0,15,15,8,1
,,e,0.535,,,,,,images/-5.png,-5,01,001,2020-12-02_10h01.53.252,lm,2020.2.8,Win32,60,,,0,16,16,5,1
,,e,0.436,,,,,,images/-9.png,-9,01,001,2020-12-02_10h01.53.252,lm,2020.2.8,Win32,60,,,0,17,17,1,1
,,o,0.356,,,,,,images/1.png,1,01,001,2020-12-02_10h01.53.252,lm,2020.2.8,Win32,60,,,0,18,18,11,1
,,o,0.44,,,,,,images/9.png,9,01,001,2020-12-02_10h01.53.252,lm,2020.2.8,Win32,60,,,0,19,19,19,1
,,e,1.786,,,,,,images/-1.png,-1,01,001,2020-12-02_10h01.53.252,lm,2020.2.8,Win32,60,,,0,20,20,9,1
,,e,0.418,,,,,,images/-9.png,-9,01,001,2020-12-02_10h01.53.252,lm,2020.2.8,Win32,60,,,1,0,21,1,1
,,o,0.372,,,,,,images/6.png,6,01,001,2020-12-02_10h01.53.252,lm,2020.2.8,Win32,60,,,1,1,22,16,1
,,o,1.119,,,,,,images/3.png,3,01,001,2020-12-02_10h01.53.252,lm,2020.2.8,Win32,60,,,1,2,23,13,1
,,o,0.588,,,,,,images/1.png,1,01,001,2020-12-02_10h01.53.252,lm,2020.2.8,Win32,60,,,1,3,24,11,1
,,e,0.57,,,,,,images/-10.png,-10,01,001,2020-12-02_10h01.53.252,lm,2020.2.8,Win32,60,,,1,4,25,0,1
,,o,0.568,,,,,,images/2.png,2,01,001,2020-12-02_10h01.53.252,lm,2020.2.8,Win32,60,,,1,5,26,12,1
,,o,1.005,,,,,,images/-4.png,-4,01,001,2020-12-02_10h01.53.252,lm,2020.2.8,Win32,60,,,1,6,27,6,1
,,o,0.325,,,,,,images/8.png,8,01,001,2020-12-02_10h01.53.252,lm,2020.2.8,Win32,60,,,1,7,28,18,1
,,o,1.619,,,,,,images/-2.png,-2,01,001,2020-12-02_10h01.53.252,lm,2020.2.8,Win32,60,,,1,8,29,8,1
,,o,0.736,,,,,,images/5.png,5,01,001,2020-12-02_10h01.53.252,lm,2020.2.8,Win32,60,,,1,9,30,15,1
,,o,2.069,,,,,,images/0.png,0,01,001,2020-12-02_10h01.53.252,lm,2020.2.8,Win32,60,,,1,10,31,10,1
,,o,0.751,,,,,,images/10.png,10,01,001,2020-12-02_10h01.53.252,lm,2020.2.8,Win32,60,,,1,11,32,20,1
,,e,1.253,,,,,,images/-7.png,-7,01,001,2020-12-02_10h01.53.252,lm,2020.2.8,Win32,60,,,1,12,33,3,1
,,o,0.885,,,,,,images/7.png,7,01,001,2020-12-02_10h01.53.252,lm,2020.2.8,Win32,60,,,1,13,34,17,1
,,e,3.34,,,,,,images/-3.png,-3,01,001,2020-12-02_10h01.53.252,lm,2020.2.8,Win32,60,,,1,14,35,7,1
,,o,0.758,,,,,,images/4.png,4,01,001,2020-12-02_10h01.53.252,lm,2020.2.8,Win32,60,,,1,15,36,14,1
,,e,0.819,,,,,,images/-5.png,-5,01,001,2020-12-02_10h01.53.252,lm,2020.2.8,Win32,60,,,1,16,37,5,1
,,o,0.652,,,,,,images/9.png,9,01,001,2020-12-02_10h01.53.252,lm,2020.2.8,Win32,60,,,1,17,38,19,1
,,e,0.802,,,,,,images/-8.png,-8,01,001,2020-12-02_10h01.53.252,lm,2020.2.8,Win32,60,,,1,18,39,2,1
,,e,0.802,,,,,,images/-6.png,-6,01,001,2020-12-02_10h01.53.252,lm,2020.2.8,Win32,60,,,1,19,40,4,1
,,e,0.869,,,,,,images/-1.png,-1,01,001,2020-12-02_10h01.53.252,lm,2020.2.8,Win32,60,,,1,20,41,9,1
,,e,1.076,,,,,,images/-4.png,-4,01,001,2020-12-02_10h01.53.252,lm,2020.2.8,Win32,60,,,2,0,42,6,1
,,o,0.401,,,,,,images/7.png,7,01,001,2020-12-02_10h01.53.252,lm,2020.2.8,Win32,60,,,2,1,43,17,1
,,o,0.686,,,,,,images/-1.png,-1,01,001,2020-12-02_10h01.53.252,lm,2020.2.8,Win32,60,,,2,2,44,9,1
,,o,0.387,,,,,,images/3.png,3,01,001,2020-12-02_10h01.53.252,lm,2020.2.8,Win32,60,,,2,3,45,13,1
,,o,0.636,,,,,,images/6.png,6,01,001,2020-12-02_10h01.53.252,lm,2020.2.8,Win32,60,,,2,4,46,16,1
,,o,1.136,,,,,,images/4.png,4,01,001,2020-12-02_10h01.53.252,lm,2020.2.8,Win32,60,,,2,5,47,14,1
,,e,0.736,,,,,,images/-5.png,-5,01,001,2020-12-02_10h01.53.252,lm,2020.2.8,Win32,60,,,2,6,48,5,1
,,e,0.806,,,,,,images/-6.png,-6,01,001,2020-12-02_10h01.53.252,lm,2020.2.8,Win32,60,,,2,7,49,4,1
,,e,1.152,,,,,,images/-7.png,-7,01,001,2020-12-02_10h01.53.252,lm,2020.2.8,Win32,60,,,2,8,50,3,1
,,o,0.819,,,,,,images/10.png,10,01,001,2020-12-02_10h01.53.252,lm,2020.2.8,Win32,60,,,2,9,51,20,1
,,o,0.97,,,,,,images/2.png,2,01,001,2020-12-02_10h01.53.252,lm,2020.2.8,Win32,60,,,2,10,52,12,1
,,e,0.702,,,,,,images/-8.png,-8,01,001,2020-12-02_10h01.53.252,lm,2020.2.8,Win32,60,,,2,11,53,2,1
,,o,2.14,,,,,,images/-3.png,-3,01,001,2020-12-02_10h01.53.252,lm,2020.2.8,Win32,60,,,2,12,54,7,1
,,o,0.455,,,,,,images/5.png,5,01,001,2020-12-02_10h01.53.252,lm,2020.2.8,Win32,60,,,2,13,55,15,1
,,o,0.317,,,,,,images/9.png,9,01,001,2020-12-02_10h01.53.252,lm,2020.2.8,Win32,60,,,2,14,56,19,1
,,e,2.14,,,,,,images/-2.png,-2,01,001,2020-12-02_10h01.53.252,lm,2020.2.8,Win32,60,,,2,15,57,8,1
,,e,0.806,,,,,,images/-10.png,-10,01,001,2020-12-02_10h01.53.252,lm,2020.2.8,Win32,60,,,2,16,58,0,1
,,o,0.775,,,,,,images/8.png,8,01,001,2020-12-02_10h01.53.252,lm,2020.2.8,Win32,60,,,2,17,59,18,1
,,o,0.652,,,,,,images/1.png,1,01,001,2020-12-02_10h01.53.252,lm,2020.2.8,Win32,60,,,2,18,60,11,1
,,e,0.784,,,,,,images/-9.png,-9,01,001,2020-12-02_10h01.53.252,lm,2020.2.8,Win32,60,,,2,19,61,1,1
,,o,1.236,,,,,,images/0.png,0,01,001,2020-12-02_10h01.53.252,lm,2020.2.8,Win32,60,,,2,20,62,10,1
