resp_txt.keys,resp_txt.rt,resp.keys,resp.rt,trials_training.thisRepN,trials_training.thisTrialN,trials_training.thisN,trials_training.thisIndex,trials_training.ran,line_file,offset,participant,session,date,expName,psychopyVersion,OS,frameRate,key_resp_after_training.keys,key_resp_after_training.rt,trials.thisRepN,trials.thisTrialN,trials.thisN,trials.thisIndex,trials.ran
space,50.709,o,1.227,0,0,0,15,1,images/5.png,5,lafittesab,001,2020-12-03_22h11.14.063,lm,2020.2.8,Win32,60,,,,,,,
,,o,1.316,0,1,1,13,1,images/3.png,3,lafittesab,001,2020-12-03_22h11.14.063,lm,2020.2.8,Win32,60,,,,,,,
,,o,1.438,0,2,2,14,1,images/4.png,4,lafittesab,001,2020-12-03_22h11.14.063,lm,2020.2.8,Win32,60,,,,,,,
,,o,1.431,0,3,3,12,1,images/2.png,2,lafittesab,001,2020-12-03_22h11.14.063,lm,2020.2.8,Win32,60,,,,,,,
,,e,4.752,0,4,4,10,1,images/0.png,0,lafittesab,001,2020-12-03_22h11.14.063,lm,2020.2.8,Win32,60,,,,,,,
,,o,1.593,0,5,5,9,1,images/-1.png,-1,lafittesab,001,2020-12-03_22h11.14.063,lm,2020.2.8,Win32,60,,,,,,,
,,e,1.65,0,6,6,3,1,images/-7.png,-7,lafittesab,001,2020-12-03_22h11.14.063,lm,2020.2.8,Win32,60,,,,,,,
,,o,0.88,0,7,7,19,1,images/9.png,9,lafittesab,001,2020-12-03_22h11.14.063,lm,2020.2.8,Win32,60,,,,,,,
,,e,0.946,0,8,8,0,1,images/-10.png,-10,lafittesab,001,2020-12-03_22h11.14.063,lm,2020.2.8,Win32,60,,,,,,,
,,o,1.043,0,9,9,17,1,images/7.png,7,lafittesab,001,2020-12-03_22h11.14.063,lm,2020.2.8,Win32,60,,,,,,,
,,e,1.33,0,10,10,2,1,images/-8.png,-8,lafittesab,001,2020-12-03_22h11.14.063,lm,2020.2.8,Win32,60,,,,,,,
,,o,0.782,0,11,11,18,1,images/8.png,8,lafittesab,001,2020-12-03_22h11.14.063,lm,2020.2.8,Win32,60,,,,,,,
,,o,3.213,0,12,12,11,1,images/1.png,1,lafittesab,001,2020-12-03_22h11.14.063,lm,2020.2.8,Win32,60,,,,,,,
,,e,3.26,0,13,13,5,1,images/-5.png,-5,lafittesab,001,2020-12-03_22h11.14.063,lm,2020.2.8,Win32,60,,,,,,,
,,o,1.047,0,14,14,16,1,images/6.png,6,lafittesab,001,2020-12-03_22h11.14.063,lm,2020.2.8,Win32,60,,,,,,,
,,e,1.766,0,15,15,6,1,images/-4.png,-4,lafittesab,001,2020-12-03_22h11.14.063,lm,2020.2.8,Win32,60,,,,,,,
,,e,1.018,0,16,16,4,1,images/-6.png,-6,lafittesab,001,2020-12-03_22h11.14.063,lm,2020.2.8,Win32,60,,,,,,,
,,o,0.787,0,17,17,20,1,images/10.png,10,lafittesab,001,2020-12-03_22h11.14.063,lm,2020.2.8,Win32,60,,,,,,,
,,e,1.314,0,18,18,7,1,images/-3.png,-3,lafittesab,001,2020-12-03_22h11.14.063,lm,2020.2.8,Win32,60,,,,,,,
,,e,2.371,0,19,19,8,1,images/-2.png,-2,lafittesab,001,2020-12-03_22h11.14.063,lm,2020.2.8,Win32,60,,,,,,,
,,e,0.955,0,20,20,1,1,images/-9.png,-9,lafittesab,001,2020-12-03_22h11.14.063,lm,2020.2.8,Win32,60,,,,,,,
,,e,2.589,,,,,,images/-2.png,-2,lafittesab,001,2020-12-03_22h11.14.063,lm,2020.2.8,Win32,60,space,7.623,0,0,0,8,1
,,e,0.729,,,,,,images/-10.png,-10,lafittesab,001,2020-12-03_22h11.14.063,lm,2020.2.8,Win32,60,,,0,1,1,0,1
,,o,1.103,,,,,,images/2.png,2,lafittesab,001,2020-12-03_22h11.14.063,lm,2020.2.8,Win32,60,,,0,2,2,12,1
,,o,2.975,,,,,,images/0.png,0,lafittesab,001,2020-12-03_22h11.14.063,lm,2020.2.8,Win32,60,,,0,3,3,10,1
,,o,0.591,,,,,,images/10.png,10,lafittesab,001,2020-12-03_22h11.14.063,lm,2020.2.8,Win32,60,,,0,4,4,20,1
,,o,0.857,,,,,,images/8.png,8,lafittesab,001,2020-12-03_22h11.14.063,lm,2020.2.8,Win32,60,,,0,5,5,18,1
,,e,0.76,,,,,,images/-9.png,-9,lafittesab,001,2020-12-03_22h11.14.063,lm,2020.2.8,Win32,60,,,0,6,6,1,1
,,e,0.754,,,,,,images/-6.png,-6,lafittesab,001,2020-12-03_22h11.14.063,lm,2020.2.8,Win32,60,,,0,7,7,4,1
,,e,1.108,,,,,,images/-8.png,-8,lafittesab,001,2020-12-03_22h11.14.063,lm,2020.2.8,Win32,60,,,0,8,8,2,1
,,o,1.082,,,,,,images/4.png,4,lafittesab,001,2020-12-03_22h11.14.063,lm,2020.2.8,Win32,60,,,0,9,9,14,1
,,o,1.169,,,,,,images/9.png,9,lafittesab,001,2020-12-03_22h11.14.063,lm,2020.2.8,Win32,60,,,0,10,10,19,1
,,e,2.418,,,,,,images/-3.png,-3,lafittesab,001,2020-12-03_22h11.14.063,lm,2020.2.8,Win32,60,,,0,11,11,7,1
,,o,1.316,,,,,,images/3.png,3,lafittesab,001,2020-12-03_22h11.14.063,lm,2020.2.8,Win32,60,,,0,12,12,13,1
,,o,1.012,,,,,,images/6.png,6,lafittesab,001,2020-12-03_22h11.14.063,lm,2020.2.8,Win32,60,,,0,13,13,16,1
,,e,1.603,,,,,,images/-7.png,-7,lafittesab,001,2020-12-03_22h11.14.063,lm,2020.2.8,Win32,60,,,0,14,14,3,1
,,o,1.473,,,,,,images/5.png,5,lafittesab,001,2020-12-03_22h11.14.063,lm,2020.2.8,Win32,60,,,0,15,15,15,1
,,e,1.751,,,,,,images/-4.png,-4,lafittesab,001,2020-12-03_22h11.14.063,lm,2020.2.8,Win32,60,,,0,16,16,6,1
,,e,1.422,,,,,,images/-5.png,-5,lafittesab,001,2020-12-03_22h11.14.063,lm,2020.2.8,Win32,60,,,0,17,17,5,1
,,e,1.921,,,,,,images/-1.png,-1,lafittesab,001,2020-12-03_22h11.14.063,lm,2020.2.8,Win32,60,,,0,18,18,9,1
,,e,1.989,,,,,,images/1.png,1,lafittesab,001,2020-12-03_22h11.14.063,lm,2020.2.8,Win32,60,,,0,19,19,11,1
,,o,0.85,,,,,,images/7.png,7,lafittesab,001,2020-12-03_22h11.14.063,lm,2020.2.8,Win32,60,,,0,20,20,17,1
,,o,0.98,,,,,,images/10.png,10,lafittesab,001,2020-12-03_22h11.14.063,lm,2020.2.8,Win32,60,,,1,0,21,20,1
,,o,1.179,,,,,,images/5.png,5,lafittesab,001,2020-12-03_22h11.14.063,lm,2020.2.8,Win32,60,,,1,1,22,15,1
,,e,0.983,,,,,,images/-7.png,-7,lafittesab,001,2020-12-03_22h11.14.063,lm,2020.2.8,Win32,60,,,1,2,23,3,1
,,e,0.822,,,,,,images/-9.png,-9,lafittesab,001,2020-12-03_22h11.14.063,lm,2020.2.8,Win32,60,,,1,3,24,1,1
,,e,1.379,,,,,,images/-1.png,-1,lafittesab,001,2020-12-03_22h11.14.063,lm,2020.2.8,Win32,60,,,1,4,25,9,1
,,e,2.355,,,,,,images/0.png,0,lafittesab,001,2020-12-03_22h11.14.063,lm,2020.2.8,Win32,60,,,1,5,26,10,1
,,o,2.054,,,,,,images/8.png,8,lafittesab,001,2020-12-03_22h11.14.063,lm,2020.2.8,Win32,60,,,1,6,27,18,1
,,e,2.15,,,,,,images/2.png,2,lafittesab,001,2020-12-03_22h11.14.063,lm,2020.2.8,Win32,60,,,1,7,28,12,1
,,o,2.057,,,,,,images/7.png,7,lafittesab,001,2020-12-03_22h11.14.063,lm,2020.2.8,Win32,60,,,1,8,29,17,1
,,e,1.783,,,,,,images/-3.png,-3,lafittesab,001,2020-12-03_22h11.14.063,lm,2020.2.8,Win32,60,,,1,9,30,7,1
,,o,1.24,,,,,,images/9.png,9,lafittesab,001,2020-12-03_22h11.14.063,lm,2020.2.8,Win32,60,,,1,10,31,19,1
,,o,1.281,,,,,,images/6.png,6,lafittesab,001,2020-12-03_22h11.14.063,lm,2020.2.8,Win32,60,,,1,11,32,16,1
,,e,0.876,,,,,,images/-8.png,-8,lafittesab,001,2020-12-03_22h11.14.063,lm,2020.2.8,Win32,60,,,1,12,33,2,1
,,o,1.442,,,,,,images/3.png,3,lafittesab,001,2020-12-03_22h11.14.063,lm,2020.2.8,Win32,60,,,1,13,34,13,1
,,e,1.99,,,,,,images/-6.png,-6,lafittesab,001,2020-12-03_22h11.14.063,lm,2020.2.8,Win32,60,,,1,14,35,4,1
,,e,0.931,,,,,,images/-10.png,-10,lafittesab,001,2020-12-03_22h11.14.063,lm,2020.2.8,Win32,60,,,1,15,36,0,1
,,e,1.707,,,,,,images/-2.png,-2,lafittesab,001,2020-12-03_22h11.14.063,lm,2020.2.8,Win32,60,,,1,16,37,8,1
,,e,1.52,,,,,,images/-4.png,-4,lafittesab,001,2020-12-03_22h11.14.063,lm,2020.2.8,Win32,60,,,1,17,38,6,1
,,e,3.283,,,,,,images/1.png,1,lafittesab,001,2020-12-03_22h11.14.063,lm,2020.2.8,Win32,60,,,1,18,39,11,1
,,o,3.552,,,,,,images/4.png,4,lafittesab,001,2020-12-03_22h11.14.063,lm,2020.2.8,Win32,60,,,1,19,40,14,1
,,e,1.747,,,,,,images/-5.png,-5,lafittesab,001,2020-12-03_22h11.14.063,lm,2020.2.8,Win32,60,,,1,20,41,5,1
,,e,1.99,,,,,,images/0.png,0,lafittesab,001,2020-12-03_22h11.14.063,lm,2020.2.8,Win32,60,,,2,0,42,10,1
,,o,1.384,,,,,,images/8.png,8,lafittesab,001,2020-12-03_22h11.14.063,lm,2020.2.8,Win32,60,,,2,1,43,18,1
,,o,0.702,,,,,,images/10.png,10,lafittesab,001,2020-12-03_22h11.14.063,lm,2020.2.8,Win32,60,,,2,2,44,20,1
,,e,1.202,,,,,,images/-5.png,-5,lafittesab,001,2020-12-03_22h11.14.063,lm,2020.2.8,Win32,60,,,2,3,45,5,1
,,o,1.538,,,,,,images/7.png,7,lafittesab,001,2020-12-03_22h11.14.063,lm,2020.2.8,Win32,60,,,2,4,46,17,1
,,o,0.818,,,,,,images/9.png,9,lafittesab,001,2020-12-03_22h11.14.063,lm,2020.2.8,Win32,60,,,2,5,47,19,1
,,e,1.47,,,,,,images/-6.png,-6,lafittesab,001,2020-12-03_22h11.14.063,lm,2020.2.8,Win32,60,,,2,6,48,4,1
,,e,1.53,,,,,,images/-3.png,-3,lafittesab,001,2020-12-03_22h11.14.063,lm,2020.2.8,Win32,60,,,2,7,49,7,1
,,e,0.781,,,,,,images/-7.png,-7,lafittesab,001,2020-12-03_22h11.14.063,lm,2020.2.8,Win32,60,,,2,8,50,3,1
,,o,1.265,,,,,,images/6.png,6,lafittesab,001,2020-12-03_22h11.14.063,lm,2020.2.8,Win32,60,,,2,9,51,16,1
,,e,0.724,,,,,,images/-10.png,-10,lafittesab,001,2020-12-03_22h11.14.063,lm,2020.2.8,Win32,60,,,2,10,52,0,1
,,o,1.919,,,,,,images/3.png,3,lafittesab,001,2020-12-03_22h11.14.063,lm,2020.2.8,Win32,60,,,2,11,53,13,1
,,o,1.349,,,,,,images/5.png,5,lafittesab,001,2020-12-03_22h11.14.063,lm,2020.2.8,Win32,60,,,2,12,54,15,1
,,e,1.075,,,,,,images/-4.png,-4,lafittesab,001,2020-12-03_22h11.14.063,lm,2020.2.8,Win32,60,,,2,13,55,6,1
,,o,2.415,,,,,,images/2.png,2,lafittesab,001,2020-12-03_22h11.14.063,lm,2020.2.8,Win32,60,,,2,14,56,12,1
,,e,2.295,,,,,,images/-2.png,-2,lafittesab,001,2020-12-03_22h11.14.063,lm,2020.2.8,Win32,60,,,2,15,57,8,1
,,o,1.554,,,,,,images/4.png,4,lafittesab,001,2020-12-03_22h11.14.063,lm,2020.2.8,Win32,60,,,2,16,58,14,1
,,o,1.392,,,,,,images/1.png,1,lafittesab,001,2020-12-03_22h11.14.063,lm,2020.2.8,Win32,60,,,2,17,59,11,1
,,e,2.571,,,,,,images/-1.png,-1,lafittesab,001,2020-12-03_22h11.14.063,lm,2020.2.8,Win32,60,,,2,18,60,9,1
,,e,1.079,,,,,,images/-8.png,-8,lafittesab,001,2020-12-03_22h11.14.063,lm,2020.2.8,Win32,60,,,2,19,61,2,1
,,e,1.124,,,,,,images/-9.png,-9,lafittesab,001,2020-12-03_22h11.14.063,lm,2020.2.8,Win32,60,,,2,20,62,1,1
,,e,0.751,,,,,,images/-10.png,-10,lafittesab,001,2020-12-03_22h11.14.063,lm,2020.2.8,Win32,60,,,3,0,63,0,1
,,e,2.038,,,,,,images/-4.png,-4,lafittesab,001,2020-12-03_22h11.14.063,lm,2020.2.8,Win32,60,,,3,1,64,6,1
,,e,1.721,,,,,,images/-3.png,-3,lafittesab,001,2020-12-03_22h11.14.063,lm,2020.2.8,Win32,60,,,3,2,65,7,1
,,e,0.713,,,,,,images/-8.png,-8,lafittesab,001,2020-12-03_22h11.14.063,lm,2020.2.8,Win32,60,,,3,3,66,2,1
,,o,0.668,,,,,,images/10.png,10,lafittesab,001,2020-12-03_22h11.14.063,lm,2020.2.8,Win32,60,,,3,4,67,20,1
,,o,1.02,,,,,,images/6.png,6,lafittesab,001,2020-12-03_22h11.14.063,lm,2020.2.8,Win32,60,,,3,5,68,16,1
,,e,2.224,,,,,,images/0.png,0,lafittesab,001,2020-12-03_22h11.14.063,lm,2020.2.8,Win32,60,,,3,6,69,10,1
,,o,1.014,,,,,,images/4.png,4,lafittesab,001,2020-12-03_22h11.14.063,lm,2020.2.8,Win32,60,,,3,7,70,14,1
,,e,1.469,,,,,,images/-9.png,-9,lafittesab,001,2020-12-03_22h11.14.063,lm,2020.2.8,Win32,60,,,3,8,71,1,1
,,o,1.221,,,,,,images/5.png,5,lafittesab,001,2020-12-03_22h11.14.063,lm,2020.2.8,Win32,60,,,3,9,72,15,1
,,o,1.994,,,,,,images/3.png,3,lafittesab,001,2020-12-03_22h11.14.063,lm,2020.2.8,Win32,60,,,3,10,73,13,1
,,e,1.339,,,,,,images/-2.png,-2,lafittesab,001,2020-12-03_22h11.14.063,lm,2020.2.8,Win32,60,,,3,11,74,8,1
,,o,1.446,,,,,,images/9.png,9,lafittesab,001,2020-12-03_22h11.14.063,lm,2020.2.8,Win32,60,,,3,12,75,19,1
,,o,0.964,,,,,,images/7.png,7,lafittesab,001,2020-12-03_22h11.14.063,lm,2020.2.8,Win32,60,,,3,13,76,17,1
,,o,1.168,,,,,,images/-1.png,-1,lafittesab,001,2020-12-03_22h11.14.063,lm,2020.2.8,Win32,60,,,3,14,77,9,1
,,e,2.135,,,,,,images/-6.png,-6,lafittesab,001,2020-12-03_22h11.14.063,lm,2020.2.8,Win32,60,,,3,15,78,4,1
,,o,2.138,,,,,,images/1.png,1,lafittesab,001,2020-12-03_22h11.14.063,lm,2020.2.8,Win32,60,,,3,16,79,11,1
,,e,2.454,,,,,,images/-5.png,-5,lafittesab,001,2020-12-03_22h11.14.063,lm,2020.2.8,Win32,60,,,3,17,80,5,1
,,o,1.092,,,,,,images/2.png,2,lafittesab,001,2020-12-03_22h11.14.063,lm,2020.2.8,Win32,60,,,3,18,81,12,1
,,o,0.996,,,,,,images/8.png,8,lafittesab,001,2020-12-03_22h11.14.063,lm,2020.2.8,Win32,60,,,3,19,82,18,1
,,e,2.499,,,,,,images/-7.png,-7,lafittesab,001,2020-12-03_22h11.14.063,lm,2020.2.8,Win32,60,,,3,20,83,3,1
