resp_txt.keys,resp_txt.rt,resp.keys,resp.rt,trials_training.thisRepN,trials_training.thisTrialN,trials_training.thisN,trials_training.thisIndex,trials_training.ran,line_file,offset,participant,session,date,expName,psychopyVersion,OS,frameRate,key_resp_after_training.keys,key_resp_after_training.rt,trials.thisRepN,trials.thisTrialN,trials.thisN,trials.thisIndex,trials.ran
space,47.189,o,8.76,0,0,0,9,1,images/-1.png,-1,lafitte Marc,001,2020-12-03_22h30.03.044,lm,2020.2.8,Win32,60,,,,,,,
,,o,1.263,0,1,1,13,1,images/3.png,3,lafitte Marc,001,2020-12-03_22h30.03.044,lm,2020.2.8,Win32,60,,,,,,,
,,o,0.784,0,2,2,20,1,images/10.png,10,lafitte Marc,001,2020-12-03_22h30.03.044,lm,2020.2.8,Win32,60,,,,,,,
,,o,1.248,0,3,3,12,1,images/2.png,2,lafitte Marc,001,2020-12-03_22h30.03.044,lm,2020.2.8,Win32,60,,,,,,,
,,o,1.627,0,4,4,10,1,images/0.png,0,lafitte Marc,001,2020-12-03_22h30.03.044,lm,2020.2.8,Win32,60,,,,,,,
,,e,0.929,0,5,5,1,1,images/-9.png,-9,lafitte Marc,001,2020-12-03_22h30.03.044,lm,2020.2.8,Win32,60,,,,,,,
,,o,0.677,0,6,6,18,1,images/8.png,8,lafitte Marc,001,2020-12-03_22h30.03.044,lm,2020.2.8,Win32,60,,,,,,,
,,o,0.856,0,7,7,14,1,images/4.png,4,lafitte Marc,001,2020-12-03_22h30.03.044,lm,2020.2.8,Win32,60,,,,,,,
,,e,1.257,0,8,8,8,1,images/-2.png,-2,lafitte Marc,001,2020-12-03_22h30.03.044,lm,2020.2.8,Win32,60,,,,,,,
,,e,0.471,0,9,9,5,1,images/-5.png,-5,lafitte Marc,001,2020-12-03_22h30.03.044,lm,2020.2.8,Win32,60,,,,,,,
,,o,0.564,0,10,10,17,1,images/7.png,7,lafitte Marc,001,2020-12-03_22h30.03.044,lm,2020.2.8,Win32,60,,,,,,,
,,e,0.494,0,11,11,0,1,images/-10.png,-10,lafitte Marc,001,2020-12-03_22h30.03.044,lm,2020.2.8,Win32,60,,,,,,,
,,e,0.617,0,12,12,3,1,images/-7.png,-7,lafitte Marc,001,2020-12-03_22h30.03.044,lm,2020.2.8,Win32,60,,,,,,,
,,o,0.672,0,13,13,19,1,images/9.png,9,lafitte Marc,001,2020-12-03_22h30.03.044,lm,2020.2.8,Win32,60,,,,,,,
,,e,0.957,0,14,14,6,1,images/-4.png,-4,lafitte Marc,001,2020-12-03_22h30.03.044,lm,2020.2.8,Win32,60,,,,,,,
,,e,0.876,0,15,15,7,1,images/-3.png,-3,lafitte Marc,001,2020-12-03_22h30.03.044,lm,2020.2.8,Win32,60,,,,,,,
,,e,0.583,0,16,16,2,1,images/-8.png,-8,lafitte Marc,001,2020-12-03_22h30.03.044,lm,2020.2.8,Win32,60,,,,,,,
,,o,0.586,0,17,17,16,1,images/6.png,6,lafitte Marc,001,2020-12-03_22h30.03.044,lm,2020.2.8,Win32,60,,,,,,,
,,o,0.924,0,18,18,11,1,images/1.png,1,lafitte Marc,001,2020-12-03_22h30.03.044,lm,2020.2.8,Win32,60,,,,,,,
,,o,0.442,0,19,19,15,1,images/5.png,5,lafitte Marc,001,2020-12-03_22h30.03.044,lm,2020.2.8,Win32,60,,,,,,,
,,e,0.627,0,20,20,4,1,images/-6.png,-6,lafitte Marc,001,2020-12-03_22h30.03.044,lm,2020.2.8,Win32,60,,,,,,,
,,o,0.648,,,,,,images/5.png,5,lafitte Marc,001,2020-12-03_22h30.03.044,lm,2020.2.8,Win32,60,space,6.871,0,0,0,15,1
,,e,0.849,,,,,,images/-9.png,-9,lafitte Marc,001,2020-12-03_22h30.03.044,lm,2020.2.8,Win32,60,,,0,1,1,1,1
,,e,0.571,,,,,,images/-10.png,-10,lafitte Marc,001,2020-12-03_22h30.03.044,lm,2020.2.8,Win32,60,,,0,2,2,0,1
,,e,0.821,,,,,,images/-3.png,-3,lafitte Marc,001,2020-12-03_22h30.03.044,lm,2020.2.8,Win32,60,,,0,3,3,7,1
,,o,0.583,,,,,,images/4.png,4,lafitte Marc,001,2020-12-03_22h30.03.044,lm,2020.2.8,Win32,60,,,0,4,4,14,1
,,o,0.815,,,,,,images/0.png,0,lafitte Marc,001,2020-12-03_22h30.03.044,lm,2020.2.8,Win32,60,,,0,5,5,10,1
,,e,0.546,,,,,,images/-7.png,-7,lafitte Marc,001,2020-12-03_22h30.03.044,lm,2020.2.8,Win32,60,,,0,6,6,3,1
,,o,0.66,,,,,,images/9.png,9,lafitte Marc,001,2020-12-03_22h30.03.044,lm,2020.2.8,Win32,60,,,0,7,7,19,1
,,o,0.896,,,,,,images/7.png,7,lafitte Marc,001,2020-12-03_22h30.03.044,lm,2020.2.8,Win32,60,,,0,8,8,17,1
,,e,0.997,,,,,,images/-4.png,-4,lafitte Marc,001,2020-12-03_22h30.03.044,lm,2020.2.8,Win32,60,,,0,9,9,6,1
,,e,1.081,,,,,,images/1.png,1,lafitte Marc,001,2020-12-03_22h30.03.044,lm,2020.2.8,Win32,60,,,0,10,10,11,1
,,o,0.92,,,,,,images/10.png,10,lafitte Marc,001,2020-12-03_22h30.03.044,lm,2020.2.8,Win32,60,,,0,11,11,20,1
,,e,0.963,,,,,,images/-6.png,-6,lafitte Marc,001,2020-12-03_22h30.03.044,lm,2020.2.8,Win32,60,,,0,12,12,4,1
,,o,0.674,,,,,,images/6.png,6,lafitte Marc,001,2020-12-03_22h30.03.044,lm,2020.2.8,Win32,60,,,0,13,13,16,1
,,e,0.746,,,,,,images/-8.png,-8,lafitte Marc,001,2020-12-03_22h30.03.044,lm,2020.2.8,Win32,60,,,0,14,14,2,1
,,e,0.762,,,,,,images/-1.png,-1,lafitte Marc,001,2020-12-03_22h30.03.044,lm,2020.2.8,Win32,60,,,0,15,15,9,1
,,o,0.781,,,,,,images/2.png,2,lafitte Marc,001,2020-12-03_22h30.03.044,lm,2020.2.8,Win32,60,,,0,16,16,12,1
,,o,4.098,,,,,,images/8.png,8,lafitte Marc,001,2020-12-03_22h30.03.044,lm,2020.2.8,Win32,60,,,0,17,17,18,1
,,e,0.799,,,,,,images/-5.png,-5,lafitte Marc,001,2020-12-03_22h30.03.044,lm,2020.2.8,Win32,60,,,0,18,18,5,1
,,e,0.959,,,,,,images/-2.png,-2,lafitte Marc,001,2020-12-03_22h30.03.044,lm,2020.2.8,Win32,60,,,0,19,19,8,1
,,e,1.258,,,,,,images/3.png,3,lafitte Marc,001,2020-12-03_22h30.03.044,lm,2020.2.8,Win32,60,,,0,20,20,13,1
,,o,1.073,,,,,,images/3.png,3,lafitte Marc,001,2020-12-03_22h30.03.044,lm,2020.2.8,Win32,60,,,1,0,21,13,1
,,e,0.682,,,,,,images/-7.png,-7,lafitte Marc,001,2020-12-03_22h30.03.044,lm,2020.2.8,Win32,60,,,1,1,22,3,1
,,o,0.8,,,,,,images/6.png,6,lafitte Marc,001,2020-12-03_22h30.03.044,lm,2020.2.8,Win32,60,,,1,2,23,16,1
,,o,0.684,,,,,,images/5.png,5,lafitte Marc,001,2020-12-03_22h30.03.044,lm,2020.2.8,Win32,60,,,1,3,24,15,1
,,o,1.466,,,,,,images/-1.png,-1,lafitte Marc,001,2020-12-03_22h30.03.044,lm,2020.2.8,Win32,60,,,1,4,25,9,1
,,o,1.236,,,,,,images/0.png,0,lafitte Marc,001,2020-12-03_22h30.03.044,lm,2020.2.8,Win32,60,,,1,5,26,10,1
,,o,0.821,,,,,,images/8.png,8,lafitte Marc,001,2020-12-03_22h30.03.044,lm,2020.2.8,Win32,60,,,1,6,27,18,1
,,e,1.171,,,,,,images/-2.png,-2,lafitte Marc,001,2020-12-03_22h30.03.044,lm,2020.2.8,Win32,60,,,1,7,28,8,1
,,e,0.536,,,,,,images/-9.png,-9,lafitte Marc,001,2020-12-03_22h30.03.044,lm,2020.2.8,Win32,60,,,1,8,29,1,1
,,e,0.552,,,,,,images/-8.png,-8,lafitte Marc,001,2020-12-03_22h30.03.044,lm,2020.2.8,Win32,60,,,1,9,30,2,1
,,e,1.505,,,,,,images/4.png,4,lafitte Marc,001,2020-12-03_22h30.03.044,lm,2020.2.8,Win32,60,,,1,10,31,14,1
,,e,1.138,,,,,,images/-5.png,-5,lafitte Marc,001,2020-12-03_22h30.03.044,lm,2020.2.8,Win32,60,,,1,11,32,5,1
,,o,0.764,,,,,,images/10.png,10,lafitte Marc,001,2020-12-03_22h30.03.044,lm,2020.2.8,Win32,60,,,1,12,33,20,1
,,o,1.451,,,,,,images/2.png,2,lafitte Marc,001,2020-12-03_22h30.03.044,lm,2020.2.8,Win32,60,,,1,13,34,12,1
,,e,1.514,,,,,,images/-3.png,-3,lafitte Marc,001,2020-12-03_22h30.03.044,lm,2020.2.8,Win32,60,,,1,14,35,7,1
,,e,0.516,,,,,,images/-10.png,-10,lafitte Marc,001,2020-12-03_22h30.03.044,lm,2020.2.8,Win32,60,,,1,15,36,0,1
,,o,0.546,,,,,,images/9.png,9,lafitte Marc,001,2020-12-03_22h30.03.044,lm,2020.2.8,Win32,60,,,1,16,37,19,1
,,o,0.497,,,,,,images/7.png,7,lafitte Marc,001,2020-12-03_22h30.03.044,lm,2020.2.8,Win32,60,,,1,17,38,17,1
,,e,0.816,,,,,,images/-6.png,-6,lafitte Marc,001,2020-12-03_22h30.03.044,lm,2020.2.8,Win32,60,,,1,18,39,4,1
,,e,1.089,,,,,,images/1.png,1,lafitte Marc,001,2020-12-03_22h30.03.044,lm,2020.2.8,Win32,60,,,1,19,40,11,1
,,e,1.289,,,,,,images/-4.png,-4,lafitte Marc,001,2020-12-03_22h30.03.044,lm,2020.2.8,Win32,60,,,1,20,41,6,1
,,o,1.074,,,,,,images/5.png,5,lafitte Marc,001,2020-12-03_22h30.03.044,lm,2020.2.8,Win32,60,,,2,0,42,15,1
,,o,1.239,,,,,,images/-1.png,-1,lafitte Marc,001,2020-12-03_22h30.03.044,lm,2020.2.8,Win32,60,,,2,1,43,9,1
,,o,0.557,,,,,,images/6.png,6,lafitte Marc,001,2020-12-03_22h30.03.044,lm,2020.2.8,Win32,60,,,2,2,44,16,1
,,e,0.793,,,,,,images/-6.png,-6,lafitte Marc,001,2020-12-03_22h30.03.044,lm,2020.2.8,Win32,60,,,2,3,45,4,1
,,o,1.047,,,,,,images/9.png,9,lafitte Marc,001,2020-12-03_22h30.03.044,lm,2020.2.8,Win32,60,,,2,4,46,19,1
,,o,0.922,,,,,,images/4.png,4,lafitte Marc,001,2020-12-03_22h30.03.044,lm,2020.2.8,Win32,60,,,2,5,47,14,1
,,o,1.193,,,,,,images/7.png,7,lafitte Marc,001,2020-12-03_22h30.03.044,lm,2020.2.8,Win32,60,,,2,6,48,17,1
,,e,0.936,,,,,,images/-10.png,-10,lafitte Marc,001,2020-12-03_22h30.03.044,lm,2020.2.8,Win32,60,,,2,7,49,0,1
,,o,0.808,,,,,,images/10.png,10,lafitte Marc,001,2020-12-03_22h30.03.044,lm,2020.2.8,Win32,60,,,2,8,50,20,1
,,e,1.123,,,,,,images/-3.png,-3,lafitte Marc,001,2020-12-03_22h30.03.044,lm,2020.2.8,Win32,60,,,2,9,51,7,1
,,o,1.01,,,,,,images/8.png,8,lafitte Marc,001,2020-12-03_22h30.03.044,lm,2020.2.8,Win32,60,,,2,10,52,18,1
,,o,1.106,,,,,,images/1.png,1,lafitte Marc,001,2020-12-03_22h30.03.044,lm,2020.2.8,Win32,60,,,2,11,53,11,1
,,e,0.706,,,,,,images/-8.png,-8,lafitte Marc,001,2020-12-03_22h30.03.044,lm,2020.2.8,Win32,60,,,2,12,54,2,1
,,e,1.42,,,,,,images/2.png,2,lafitte Marc,001,2020-12-03_22h30.03.044,lm,2020.2.8,Win32,60,,,2,13,55,12,1
,,e,1.331,,,,,,images/-2.png,-2,lafitte Marc,001,2020-12-03_22h30.03.044,lm,2020.2.8,Win32,60,,,2,14,56,8,1
,,e,1.12,,,,,,images/-9.png,-9,lafitte Marc,001,2020-12-03_22h30.03.044,lm,2020.2.8,Win32,60,,,2,15,57,1,1
,,e,0.709,,,,,,images/-7.png,-7,lafitte Marc,001,2020-12-03_22h30.03.044,lm,2020.2.8,Win32,60,,,2,16,58,3,1
,,e,1.334,,,,,,images/0.png,0,lafitte Marc,001,2020-12-03_22h30.03.044,lm,2020.2.8,Win32,60,,,2,17,59,10,1
,,e,1.094,,,,,,images/-4.png,-4,lafitte Marc,001,2020-12-03_22h30.03.044,lm,2020.2.8,Win32,60,,,2,18,60,6,1
,,e,1.268,,,,,,images/3.png,3,lafitte Marc,001,2020-12-03_22h30.03.044,lm,2020.2.8,Win32,60,,,2,19,61,13,1
,,e,0.946,,,,,,images/-5.png,-5,lafitte Marc,001,2020-12-03_22h30.03.044,lm,2020.2.8,Win32,60,,,2,20,62,5,1
,,o,0.649,,,,,,images/10.png,10,lafitte Marc,001,2020-12-03_22h30.03.044,lm,2020.2.8,Win32,60,,,3,0,63,20,1
,,e,1.292,,,,,,images/-7.png,-7,lafitte Marc,001,2020-12-03_22h30.03.044,lm,2020.2.8,Win32,60,,,3,1,64,3,1
,,e,1,,,,,,images/-4.png,-4,lafitte Marc,001,2020-12-03_22h30.03.044,lm,2020.2.8,Win32,60,,,3,2,65,6,1
,,e,0.99,,,,,,images/-6.png,-6,lafitte Marc,001,2020-12-03_22h30.03.044,lm,2020.2.8,Win32,60,,,3,3,66,4,1
,,e,1.113,,,,,,images/-8.png,-8,lafitte Marc,001,2020-12-03_22h30.03.044,lm,2020.2.8,Win32,60,,,3,4,67,2,1
,,e,2.071,,,,,,images/-5.png,-5,lafitte Marc,001,2020-12-03_22h30.03.044,lm,2020.2.8,Win32,60,,,3,5,68,5,1
,,e,0.982,,,,,,images/0.png,0,lafitte Marc,001,2020-12-03_22h30.03.044,lm,2020.2.8,Win32,60,,,3,6,69,10,1
,,o,0.785,,,,,,images/7.png,7,lafitte Marc,001,2020-12-03_22h30.03.044,lm,2020.2.8,Win32,60,,,3,7,70,17,1
,,o,0.713,,,,,,images/2.png,2,lafitte Marc,001,2020-12-03_22h30.03.044,lm,2020.2.8,Win32,60,,,3,8,71,12,1
,,e,1.366,,,,,,images/-2.png,-2,lafitte Marc,001,2020-12-03_22h30.03.044,lm,2020.2.8,Win32,60,,,3,9,72,8,1
,,o,0.51,,,,,,images/5.png,5,lafitte Marc,001,2020-12-03_22h30.03.044,lm,2020.2.8,Win32,60,,,3,10,73,15,1
,,o,0.477,,,,,,images/9.png,9,lafitte Marc,001,2020-12-03_22h30.03.044,lm,2020.2.8,Win32,60,,,3,11,74,19,1
,,e,0.742,,,,,,images/-9.png,-9,lafitte Marc,001,2020-12-03_22h30.03.044,lm,2020.2.8,Win32,60,,,3,12,75,1,1
,,o,0.43,,,,,,images/6.png,6,lafitte Marc,001,2020-12-03_22h30.03.044,lm,2020.2.8,Win32,60,,,3,13,76,16,1
,,e,1.344,,,,,,images/-3.png,-3,lafitte Marc,001,2020-12-03_22h30.03.044,lm,2020.2.8,Win32,60,,,3,14,77,7,1
,,o,1.07,,,,,,images/3.png,3,lafitte Marc,001,2020-12-03_22h30.03.044,lm,2020.2.8,Win32,60,,,3,15,78,13,1
,,o,0.659,,,,,,images/8.png,8,lafitte Marc,001,2020-12-03_22h30.03.044,lm,2020.2.8,Win32,60,,,3,16,79,18,1
,,e,0.885,,,,,,images/-10.png,-10,lafitte Marc,001,2020-12-03_22h30.03.044,lm,2020.2.8,Win32,60,,,3,17,80,0,1
,,e,1.085,,,,,,images/-1.png,-1,lafitte Marc,001,2020-12-03_22h30.03.044,lm,2020.2.8,Win32,60,,,3,18,81,9,1
,,o,0.866,,,,,,images/4.png,4,lafitte Marc,001,2020-12-03_22h30.03.044,lm,2020.2.8,Win32,60,,,3,19,82,14,1
,,o,1.027,,,,,,images/1.png,1,lafitte Marc,001,2020-12-03_22h30.03.044,lm,2020.2.8,Win32,60,,,3,20,83,11,1
