resp_txt.keys,resp_txt.rt,resp.keys,resp.rt,trials_training.thisRepN,trials_training.thisTrialN,trials_training.thisN,trials_training.thisIndex,trials_training.ran,line_file,offset,participant,session,date,expName,psychopyVersion,OS,frameRate,key_resp_after_training.keys,key_resp_after_training.rt,trials.thisRepN,trials.thisTrialN,trials.thisN,trials.thisIndex,trials.ran
space,27.592245,o,1.970435,0,0,0,14,1,images/4.png,4,François Lafitte,001,2020-12-05_21h44.39.311,lm,2020.2.8,Win32,60,,,,,,,
,,e,1.17117,0,1,1,5,1,images/-5.png,-5,François Lafitte,001,2020-12-05_21h44.39.311,lm,2020.2.8,Win32,60,,,,,,,
,,e,1.111625,0,2,2,7,1,images/-3.png,-3,François Lafitte,001,2020-12-05_21h44.39.311,lm,2020.2.8,Win32,60,,,,,,,
,,e,0.882485,0,3,3,9,1,images/-1.png,-1,François Lafitte,001,2020-12-05_21h44.39.311,lm,2020.2.8,Win32,60,,,,,,,
,,o,0.68409,0,4,4,15,1,images/5.png,5,François Lafitte,001,2020-12-05_21h44.39.311,lm,2020.2.8,Win32,60,,,,,,,
,,o,1.18263,0,5,5,12,1,images/2.png,2,François Lafitte,001,2020-12-05_21h44.39.311,lm,2020.2.8,Win32,60,,,,,,,
,,o,0.81786,0,6,6,18,1,images/8.png,8,François Lafitte,001,2020-12-05_21h44.39.311,lm,2020.2.8,Win32,60,,,,,,,
,,e,0.75307,0,7,7,0,1,images/-10.png,-10,François Lafitte,001,2020-12-05_21h44.39.311,lm,2020.2.8,Win32,60,,,,,,,
,,o,1.05344,0,8,8,13,1,images/3.png,3,François Lafitte,001,2020-12-05_21h44.39.311,lm,2020.2.8,Win32,60,,,,,,,
,,e,0.60662,0,9,9,10,1,images/0.png,0,François Lafitte,001,2020-12-05_21h44.39.311,lm,2020.2.8,Win32,60,,,,,,,
,,e,0.650445,0,10,10,4,1,images/-6.png,-6,François Lafitte,001,2020-12-05_21h44.39.311,lm,2020.2.8,Win32,60,,,,,,,
,,o,0.93371,0,11,11,19,1,images/9.png,9,François Lafitte,001,2020-12-05_21h44.39.311,lm,2020.2.8,Win32,60,,,,,,,
,,e,1.201885,0,12,12,11,1,images/1.png,1,François Lafitte,001,2020-12-05_21h44.39.311,lm,2020.2.8,Win32,60,,,,,,,
,,o,0.604815,0,13,13,17,1,images/7.png,7,François Lafitte,001,2020-12-05_21h44.39.311,lm,2020.2.8,Win32,60,,,,,,,
,,e,0.748695,0,14,14,3,1,images/-7.png,-7,François Lafitte,001,2020-12-05_21h44.39.311,lm,2020.2.8,Win32,60,,,,,,,
,,o,0.703675,0,15,15,20,1,images/10.png,10,François Lafitte,001,2020-12-05_21h44.39.311,lm,2020.2.8,Win32,60,,,,,,,
,,e,0.6548,0,16,16,6,1,images/-4.png,-4,François Lafitte,001,2020-12-05_21h44.39.311,lm,2020.2.8,Win32,60,,,,,,,
,,e,0.78764,0,17,17,1,1,images/-9.png,-9,François Lafitte,001,2020-12-05_21h44.39.311,lm,2020.2.8,Win32,60,,,,,,,
,,e,0.70097,0,18,18,2,1,images/-8.png,-8,François Lafitte,001,2020-12-05_21h44.39.311,lm,2020.2.8,Win32,60,,,,,,,
,,o,0.72339,0,19,19,16,1,images/6.png,6,François Lafitte,001,2020-12-05_21h44.39.311,lm,2020.2.8,Win32,60,,,,,,,
,,o,0.919625,0,20,20,8,1,images/-2.png,-2,François Lafitte,001,2020-12-05_21h44.39.311,lm,2020.2.8,Win32,60,,,,,,,
,,o,0.556515,,,,,,images/2.png,2,François Lafitte,001,2020-12-05_21h44.39.311,lm,2020.2.8,Win32,60,space,19.558665,0,0,0,12,1
,,o,0.49794,,,,,,images/8.png,8,François Lafitte,001,2020-12-05_21h44.39.311,lm,2020.2.8,Win32,60,,,0,1,1,18,1
,,o,0.86786,,,,,,images/3.png,3,François Lafitte,001,2020-12-05_21h44.39.311,lm,2020.2.8,Win32,60,,,0,2,2,13,1
,,e,0.534625,,,,,,images/0.png,0,François Lafitte,001,2020-12-05_21h44.39.311,lm,2020.2.8,Win32,60,,,0,3,3,10,1
,,e,0.500895,,,,,,images/-2.png,-2,François Lafitte,001,2020-12-05_21h44.39.311,lm,2020.2.8,Win32,60,,,0,4,4,8,1
,,e,0.51674,,,,,,images/1.png,1,François Lafitte,001,2020-12-05_21h44.39.311,lm,2020.2.8,Win32,60,,,0,5,5,11,1
,,e,0.400585,,,,,,images/-3.png,-3,François Lafitte,001,2020-12-05_21h44.39.311,lm,2020.2.8,Win32,60,,,0,6,6,7,1
,,o,0.57104,,,,,,images/10.png,10,François Lafitte,001,2020-12-05_21h44.39.311,lm,2020.2.8,Win32,60,,,0,7,7,20,1
,,o,0.4827,,,,,,images/9.png,9,François Lafitte,001,2020-12-05_21h44.39.311,lm,2020.2.8,Win32,60,,,0,8,8,19,1
,,o,0.66296,,,,,,images/6.png,6,François Lafitte,001,2020-12-05_21h44.39.311,lm,2020.2.8,Win32,60,,,0,9,9,16,1
,,o,1.412475,,,,,,images/5.png,5,François Lafitte,001,2020-12-05_21h44.39.311,lm,2020.2.8,Win32,60,,,0,10,10,15,1
,,e,0.49999,,,,,,images/-6.png,-6,François Lafitte,001,2020-12-05_21h44.39.311,lm,2020.2.8,Win32,60,,,0,11,11,4,1
,,o,0.53364,,,,,,images/7.png,7,François Lafitte,001,2020-12-05_21h44.39.311,lm,2020.2.8,Win32,60,,,0,12,12,17,1
,,e,0.53619,,,,,,images/-4.png,-4,François Lafitte,001,2020-12-05_21h44.39.311,lm,2020.2.8,Win32,60,,,0,13,13,6,1
,,o,1.06632,,,,,,images/4.png,4,François Lafitte,001,2020-12-05_21h44.39.311,lm,2020.2.8,Win32,60,,,0,14,14,14,1
,,e,0.397195,,,,,,images/-9.png,-9,François Lafitte,001,2020-12-05_21h44.39.311,lm,2020.2.8,Win32,60,,,0,15,15,1,1
,,e,0.38244,,,,,,images/-7.png,-7,François Lafitte,001,2020-12-05_21h44.39.311,lm,2020.2.8,Win32,60,,,0,16,16,3,1
,,e,0.34655,,,,,,images/-10.png,-10,François Lafitte,001,2020-12-05_21h44.39.311,lm,2020.2.8,Win32,60,,,0,17,17,0,1
,,e,0.60123,,,,,,images/-1.png,-1,François Lafitte,001,2020-12-05_21h44.39.311,lm,2020.2.8,Win32,60,,,0,18,18,9,1
,,e,0.31585,,,,,,images/-5.png,-5,François Lafitte,001,2020-12-05_21h44.39.311,lm,2020.2.8,Win32,60,,,0,19,19,5,1
,,e,0.31976,,,,,,images/-8.png,-8,François Lafitte,001,2020-12-05_21h44.39.311,lm,2020.2.8,Win32,60,,,0,20,20,2,1
,,o,0.732445,,,,,,images/8.png,8,François Lafitte,001,2020-12-05_21h44.39.311,lm,2020.2.8,Win32,60,,,1,0,21,18,1
,,o,1.099115,,,,,,images/-2.png,-2,François Lafitte,001,2020-12-05_21h44.39.311,lm,2020.2.8,Win32,60,,,1,1,22,8,1
,,e,0.566735,,,,,,images/-8.png,-8,François Lafitte,001,2020-12-05_21h44.39.311,lm,2020.2.8,Win32,60,,,1,2,23,2,1
,,e,0.536135,,,,,,images/-6.png,-6,François Lafitte,001,2020-12-05_21h44.39.311,lm,2020.2.8,Win32,60,,,1,3,24,4,1
,,e,1.13456,,,,,,images/-4.png,-4,François Lafitte,001,2020-12-05_21h44.39.311,lm,2020.2.8,Win32,60,,,1,4,25,6,1
,,o,1.067005,,,,,,images/3.png,3,François Lafitte,001,2020-12-05_21h44.39.311,lm,2020.2.8,Win32,60,,,1,5,26,13,1
,,e,1.099945,,,,,,images/1.png,1,François Lafitte,001,2020-12-05_21h44.39.311,lm,2020.2.8,Win32,60,,,1,6,27,11,1
,,o,0.66729,,,,,,images/5.png,5,François Lafitte,001,2020-12-05_21h44.39.311,lm,2020.2.8,Win32,60,,,1,7,28,15,1
,,o,1.46738,,,,,,images/4.png,4,François Lafitte,001,2020-12-05_21h44.39.311,lm,2020.2.8,Win32,60,,,1,8,29,14,1
,,e,0.471125,,,,,,images/-7.png,-7,François Lafitte,001,2020-12-05_21h44.39.311,lm,2020.2.8,Win32,60,,,1,9,30,3,1
,,o,0.463,,,,,,images/7.png,7,François Lafitte,001,2020-12-05_21h44.39.311,lm,2020.2.8,Win32,60,,,1,10,31,17,1
,,e,0.43395,,,,,,images/-10.png,-10,François Lafitte,001,2020-12-05_21h44.39.311,lm,2020.2.8,Win32,60,,,1,11,32,0,1
,,e,0.966975,,,,,,images/-1.png,-1,François Lafitte,001,2020-12-05_21h44.39.311,lm,2020.2.8,Win32,60,,,1,12,33,9,1
,,e,0.51887,,,,,,images/-3.png,-3,François Lafitte,001,2020-12-05_21h44.39.311,lm,2020.2.8,Win32,60,,,1,13,34,7,1
,,o,0.516595,,,,,,images/9.png,9,François Lafitte,001,2020-12-05_21h44.39.311,lm,2020.2.8,Win32,60,,,1,14,35,19,1
,,e,0.766405,,,,,,images/-9.png,-9,François Lafitte,001,2020-12-05_21h44.39.311,lm,2020.2.8,Win32,60,,,1,15,36,1,1
,,e,1.144605,,,,,,images/0.png,0,François Lafitte,001,2020-12-05_21h44.39.311,lm,2020.2.8,Win32,60,,,1,16,37,10,1
,,e,1.167015,,,,,,images/2.png,2,François Lafitte,001,2020-12-05_21h44.39.311,lm,2020.2.8,Win32,60,,,1,17,38,12,1
,,o,0.78435,,,,,,images/6.png,6,François Lafitte,001,2020-12-05_21h44.39.311,lm,2020.2.8,Win32,60,,,1,18,39,16,1
,,o,0.769235,,,,,,images/10.png,10,François Lafitte,001,2020-12-05_21h44.39.311,lm,2020.2.8,Win32,60,,,1,19,40,20,1
,,e,0.76682,,,,,,images/-5.png,-5,François Lafitte,001,2020-12-05_21h44.39.311,lm,2020.2.8,Win32,60,,,1,20,41,5,1
,,e,1.102815,,,,,,images/-6.png,-6,François Lafitte,001,2020-12-05_21h44.39.311,lm,2020.2.8,Win32,60,,,2,0,42,4,1
,,e,0.534345,,,,,,images/-9.png,-9,François Lafitte,001,2020-12-05_21h44.39.311,lm,2020.2.8,Win32,60,,,2,1,43,1,1
,,e,0.44897,,,,,,images/-8.png,-8,François Lafitte,001,2020-12-05_21h44.39.311,lm,2020.2.8,Win32,60,,,2,2,44,2,1
,,o,0.669805,,,,,,images/4.png,4,François Lafitte,001,2020-12-05_21h44.39.311,lm,2020.2.8,Win32,60,,,2,3,45,14,1
,,e,1.15109,,,,,,images/-3.png,-3,François Lafitte,001,2020-12-05_21h44.39.311,lm,2020.2.8,Win32,60,,,2,4,46,7,1
,,e,0.4076,,,,,,images/-10.png,-10,François Lafitte,001,2020-12-05_21h44.39.311,lm,2020.2.8,Win32,60,,,2,5,47,0,1
,,o,0.872605,,,,,,images/1.png,1,François Lafitte,001,2020-12-05_21h44.39.311,lm,2020.2.8,Win32,60,,,2,6,48,11,1
,,o,1.23435,,,,,,images/-2.png,-2,François Lafitte,001,2020-12-05_21h44.39.311,lm,2020.2.8,Win32,60,,,2,7,49,8,1
,,o,0.617145,,,,,,images/8.png,8,François Lafitte,001,2020-12-05_21h44.39.311,lm,2020.2.8,Win32,60,,,2,8,50,18,1
,,e,0.416945,,,,,,images/-5.png,-5,François Lafitte,001,2020-12-05_21h44.39.311,lm,2020.2.8,Win32,60,,,2,9,51,5,1
,,e,1.351515,,,,,,images/-1.png,-1,François Lafitte,001,2020-12-05_21h44.39.311,lm,2020.2.8,Win32,60,,,2,10,52,9,1
,,o,0.479765,,,,,,images/7.png,7,François Lafitte,001,2020-12-05_21h44.39.311,lm,2020.2.8,Win32,60,,,2,11,53,17,1
,,o,0.499375,,,,,,images/10.png,10,François Lafitte,001,2020-12-05_21h44.39.311,lm,2020.2.8,Win32,60,,,2,12,54,20,1
,,o,0.29808,,,,,,images/5.png,5,François Lafitte,001,2020-12-05_21h44.39.311,lm,2020.2.8,Win32,60,,,2,13,55,15,1
,,e,0.984515,,,,,,images/-7.png,-7,François Lafitte,001,2020-12-05_21h44.39.311,lm,2020.2.8,Win32,60,,,2,14,56,3,1
,,o,0.483155,,,,,,images/6.png,6,François Lafitte,001,2020-12-05_21h44.39.311,lm,2020.2.8,Win32,60,,,2,15,57,16,1
,,e,1.46645,,,,,,images/0.png,0,François Lafitte,001,2020-12-05_21h44.39.311,lm,2020.2.8,Win32,60,,,2,16,58,10,1
,,o,1.27278,,,,,,images/2.png,2,François Lafitte,001,2020-12-05_21h44.39.311,lm,2020.2.8,Win32,60,,,2,17,59,12,1
,,o,1.53176,,,,,,images/3.png,3,François Lafitte,001,2020-12-05_21h44.39.311,lm,2020.2.8,Win32,60,,,2,18,60,13,1
,,e,0.767265,,,,,,images/-4.png,-4,François Lafitte,001,2020-12-05_21h44.39.311,lm,2020.2.8,Win32,60,,,2,19,61,6,1
,,o,0.335165,,,,,,images/9.png,9,François Lafitte,001,2020-12-05_21h44.39.311,lm,2020.2.8,Win32,60,,,2,20,62,19,1
,,o,0.768115,,,,,,images/5.png,5,François Lafitte,001,2020-12-05_21h44.39.311,lm,2020.2.8,Win32,60,,,3,0,63,15,1
,,e,1.19878,,,,,,images/-1.png,-1,François Lafitte,001,2020-12-05_21h44.39.311,lm,2020.2.8,Win32,60,,,3,1,64,9,1
,,e,0.619165,,,,,,images/-6.png,-6,François Lafitte,001,2020-12-05_21h44.39.311,lm,2020.2.8,Win32,60,,,3,2,65,4,1
,,e,0.40224,,,,,,images/-5.png,-5,François Lafitte,001,2020-12-05_21h44.39.311,lm,2020.2.8,Win32,60,,,3,3,66,5,1
,,e,1.24529,,,,,,images/-8.png,-8,François Lafitte,001,2020-12-05_21h44.39.311,lm,2020.2.8,Win32,60,,,3,4,67,2,1
,,o,1.3175,,,,,,images/1.png,1,François Lafitte,001,2020-12-05_21h44.39.311,lm,2020.2.8,Win32,60,,,3,5,68,11,1
,,e,0.73277,,,,,,images/-4.png,-4,François Lafitte,001,2020-12-05_21h44.39.311,lm,2020.2.8,Win32,60,,,3,6,69,6,1
,,o,0.55053,,,,,,images/10.png,10,François Lafitte,001,2020-12-05_21h44.39.311,lm,2020.2.8,Win32,60,,,3,7,70,20,1
,,o,0.5513,,,,,,images/9.png,9,François Lafitte,001,2020-12-05_21h44.39.311,lm,2020.2.8,Win32,60,,,3,8,71,19,1
,,o,0.5679,,,,,,images/3.png,3,François Lafitte,001,2020-12-05_21h44.39.311,lm,2020.2.8,Win32,60,,,3,9,72,13,1
,,e,1.334405,,,,,,images/-2.png,-2,François Lafitte,001,2020-12-05_21h44.39.311,lm,2020.2.8,Win32,60,,,3,10,73,8,1
,,o,0.47892,,,,,,images/8.png,8,François Lafitte,001,2020-12-05_21h44.39.311,lm,2020.2.8,Win32,60,,,3,11,74,18,1
,,o,1.6,,,,,,images/6.png,6,François Lafitte,001,2020-12-05_21h44.39.311,lm,2020.2.8,Win32,60,,,3,12,75,16,1
,,e,0.760095,,,,,,images/-9.png,-9,François Lafitte,001,2020-12-05_21h44.39.311,lm,2020.2.8,Win32,60,,,3,13,76,1,1
,,e,0.468145,,,,,,images/-10.png,-10,François Lafitte,001,2020-12-05_21h44.39.311,lm,2020.2.8,Win32,60,,,3,14,77,0,1
,,o,0.58395,,,,,,images/7.png,7,François Lafitte,001,2020-12-05_21h44.39.311,lm,2020.2.8,Win32,60,,,3,15,78,17,1
,,o,1.12214,,,,,,images/4.png,4,François Lafitte,001,2020-12-05_21h44.39.311,lm,2020.2.8,Win32,60,,,3,16,79,14,1
,,e,1.643785,,,,,,images/0.png,0,François Lafitte,001,2020-12-05_21h44.39.311,lm,2020.2.8,Win32,60,,,3,17,80,10,1
,,e,0.383845,,,,,,images/-3.png,-3,François Lafitte,001,2020-12-05_21h44.39.311,lm,2020.2.8,Win32,60,,,3,18,81,7,1
,,e,1.798955,,,,,,images/2.png,2,François Lafitte,001,2020-12-05_21h44.39.311,lm,2020.2.8,Win32,60,,,3,19,82,12,1
,,e,0.84868,,,,,,images/-7.png,-7,François Lafitte,001,2020-12-05_21h44.39.311,lm,2020.2.8,Win32,60,,,3,20,83,3,1
