resp_txt.keys,resp_txt.rt,resp.keys,resp.rt,trials_training.thisRepN,trials_training.thisTrialN,trials_training.thisN,trials_training.thisIndex,trials_training.ran,line_file,offset,participant,session,date,expName,psychopyVersion,OS,frameRate,key_resp_after_training.keys,key_resp_after_training.rt,trials.thisRepN,trials.thisTrialN,trials.thisN,trials.thisIndex,trials.ran
space,55.01659,e,5.916115,0,0,0,2,1,images/-8.png,-8,Anne Lafitte,001,2020-12-05_17h59.43.874,lm,2020.2.8,Win32,60,,,,,,,
,,e,2.349685,0,1,1,6,1,images/-4.png,-4,Anne Lafitte,001,2020-12-05_17h59.43.874,lm,2020.2.8,Win32,60,,,,,,,
,,e,1.633435,0,2,2,3,1,images/-7.png,-7,Anne Lafitte,001,2020-12-05_17h59.43.874,lm,2020.2.8,Win32,60,,,,,,,
,,o,2.599615,0,3,3,11,1,images/1.png,1,Anne Lafitte,001,2020-12-05_17h59.43.874,lm,2020.2.8,Win32,60,,,,,,,
,,o,0.950465,0,4,4,17,1,images/7.png,7,Anne Lafitte,001,2020-12-05_17h59.43.874,lm,2020.2.8,Win32,60,,,,,,,
,,o,0.90243,0,5,5,19,1,images/9.png,9,Anne Lafitte,001,2020-12-05_17h59.43.874,lm,2020.2.8,Win32,60,,,,,,,
,,o,0.867535,0,6,6,18,1,images/8.png,8,Anne Lafitte,001,2020-12-05_17h59.43.874,lm,2020.2.8,Win32,60,,,,,,,
,,o,1.16474,0,7,7,16,1,images/6.png,6,Anne Lafitte,001,2020-12-05_17h59.43.874,lm,2020.2.8,Win32,60,,,,,,,
,,o,2.45022,0,8,8,13,1,images/3.png,3,Anne Lafitte,001,2020-12-05_17h59.43.874,lm,2020.2.8,Win32,60,,,,,,,
,,e,1.08442,0,9,9,0,1,images/-10.png,-10,Anne Lafitte,001,2020-12-05_17h59.43.874,lm,2020.2.8,Win32,60,,,,,,,
,,o,2.600345,0,10,10,9,1,images/-1.png,-1,Anne Lafitte,001,2020-12-05_17h59.43.874,lm,2020.2.8,Win32,60,,,,,,,
,,o,1.534675,0,11,11,20,1,images/10.png,10,Anne Lafitte,001,2020-12-05_17h59.43.874,lm,2020.2.8,Win32,60,,,,,,,
,,e,1.94936,0,12,12,7,1,images/-3.png,-3,Anne Lafitte,001,2020-12-05_17h59.43.874,lm,2020.2.8,Win32,60,,,,,,,
,,o,3.034285,0,13,13,10,1,images/0.png,0,Anne Lafitte,001,2020-12-05_17h59.43.874,lm,2020.2.8,Win32,60,,,,,,,
,,o,1.83326,0,14,14,15,1,images/5.png,5,Anne Lafitte,001,2020-12-05_17h59.43.874,lm,2020.2.8,Win32,60,,,,,,,
,,e,1.51614,0,15,15,8,1,images/-2.png,-2,Anne Lafitte,001,2020-12-05_17h59.43.874,lm,2020.2.8,Win32,60,,,,,,,
,,e,1.03969,0,16,16,5,1,images/-5.png,-5,Anne Lafitte,001,2020-12-05_17h59.43.874,lm,2020.2.8,Win32,60,,,,,,,
,,o,1.616575,0,17,17,14,1,images/4.png,4,Anne Lafitte,001,2020-12-05_17h59.43.874,lm,2020.2.8,Win32,60,,,,,,,
,,e,0.929605,0,18,18,1,1,images/-9.png,-9,Anne Lafitte,001,2020-12-05_17h59.43.874,lm,2020.2.8,Win32,60,,,,,,,
,,e,1.624085,0,19,19,4,1,images/-6.png,-6,Anne Lafitte,001,2020-12-05_17h59.43.874,lm,2020.2.8,Win32,60,,,,,,,
,,o,1.83328,0,20,20,12,1,images/2.png,2,Anne Lafitte,001,2020-12-05_17h59.43.874,lm,2020.2.8,Win32,60,,,,,,,
,,e,3.536545,,,,,,images/-3.png,-3,Anne Lafitte,001,2020-12-05_17h59.43.874,lm,2020.2.8,Win32,60,space,3.878785,0,0,0,7,1
,,e,1.10014,,,,,,images/-9.png,-9,Anne Lafitte,001,2020-12-05_17h59.43.874,lm,2020.2.8,Win32,60,,,0,1,1,1,1
,,o,0.68924,,,,,,images/9.png,9,Anne Lafitte,001,2020-12-05_17h59.43.874,lm,2020.2.8,Win32,60,,,0,2,2,19,1
,,o,0.882045,,,,,,images/6.png,6,Anne Lafitte,001,2020-12-05_17h59.43.874,lm,2020.2.8,Win32,60,,,0,3,3,16,1
,,e,1.00089,,,,,,images/-10.png,-10,Anne Lafitte,001,2020-12-05_17h59.43.874,lm,2020.2.8,Win32,60,,,0,4,4,0,1
,,e,0.95005,,,,,,images/-7.png,-7,Anne Lafitte,001,2020-12-05_17h59.43.874,lm,2020.2.8,Win32,60,,,0,5,5,3,1
,,e,2.94975,,,,,,images/0.png,0,Anne Lafitte,001,2020-12-05_17h59.43.874,lm,2020.2.8,Win32,60,,,0,6,6,10,1
,,o,0.96436,,,,,,images/2.png,2,Anne Lafitte,001,2020-12-05_17h59.43.874,lm,2020.2.8,Win32,60,,,0,7,7,12,1
,,o,0.801385,,,,,,images/5.png,5,Anne Lafitte,001,2020-12-05_17h59.43.874,lm,2020.2.8,Win32,60,,,0,8,8,15,1
,,e,1.680335,,,,,,images/-6.png,-6,Anne Lafitte,001,2020-12-05_17h59.43.874,lm,2020.2.8,Win32,60,,,0,9,9,4,1
,,o,0.5772,,,,,,images/10.png,10,Anne Lafitte,001,2020-12-05_17h59.43.874,lm,2020.2.8,Win32,60,,,0,10,10,20,1
,,o,1.04551,,,,,,images/3.png,3,Anne Lafitte,001,2020-12-05_17h59.43.874,lm,2020.2.8,Win32,60,,,0,11,11,13,1
,,e,1.561265,,,,,,images/-4.png,-4,Anne Lafitte,001,2020-12-05_17h59.43.874,lm,2020.2.8,Win32,60,,,0,12,12,6,1
,,e,1.065675,,,,,,images/-5.png,-5,Anne Lafitte,001,2020-12-05_17h59.43.874,lm,2020.2.8,Win32,60,,,0,13,13,5,1
,,e,1.54596,,,,,,images/-1.png,-1,Anne Lafitte,001,2020-12-05_17h59.43.874,lm,2020.2.8,Win32,60,,,0,14,14,9,1
,,o,1.060705,,,,,,images/8.png,8,Anne Lafitte,001,2020-12-05_17h59.43.874,lm,2020.2.8,Win32,60,,,0,15,15,18,1
,,o,1.083885,,,,,,images/1.png,1,Anne Lafitte,001,2020-12-05_17h59.43.874,lm,2020.2.8,Win32,60,,,0,16,16,11,1
,,o,0.86978,,,,,,images/4.png,4,Anne Lafitte,001,2020-12-05_17h59.43.874,lm,2020.2.8,Win32,60,,,0,17,17,14,1
,,e,0.733075,,,,,,images/-8.png,-8,Anne Lafitte,001,2020-12-05_17h59.43.874,lm,2020.2.8,Win32,60,,,0,18,18,2,1
,,o,1.866615,,,,,,images/7.png,7,Anne Lafitte,001,2020-12-05_17h59.43.874,lm,2020.2.8,Win32,60,,,0,19,19,17,1
,,e,1.69995,,,,,,images/-2.png,-2,Anne Lafitte,001,2020-12-05_17h59.43.874,lm,2020.2.8,Win32,60,,,0,20,20,8,1
,,o,0.6665,,,,,,images/9.png,9,Anne Lafitte,001,2020-12-05_17h59.43.874,lm,2020.2.8,Win32,60,,,1,0,21,19,1
,,e,0.97857,,,,,,images/-5.png,-5,Anne Lafitte,001,2020-12-05_17h59.43.874,lm,2020.2.8,Win32,60,,,1,1,22,5,1
,,e,2.41289,,,,,,images/-2.png,-2,Anne Lafitte,001,2020-12-05_17h59.43.874,lm,2020.2.8,Win32,60,,,1,2,23,8,1
,,o,0.59075,,,,,,images/5.png,5,Anne Lafitte,001,2020-12-05_17h59.43.874,lm,2020.2.8,Win32,60,,,1,3,24,15,1
,,e,1.11364,,,,,,images/-7.png,-7,Anne Lafitte,001,2020-12-05_17h59.43.874,lm,2020.2.8,Win32,60,,,1,4,25,3,1
,,o,3.035175,,,,,,images/-1.png,-1,Anne Lafitte,001,2020-12-05_17h59.43.874,lm,2020.2.8,Win32,60,,,1,5,26,9,1
,,o,0.57265,,,,,,images/10.png,10,Anne Lafitte,001,2020-12-05_17h59.43.874,lm,2020.2.8,Win32,60,,,1,6,27,20,1
,,e,0.680525,,,,,,images/-3.png,-3,Anne Lafitte,001,2020-12-05_17h59.43.874,lm,2020.2.8,Win32,60,,,1,7,28,7,1
,,o,1.03428,,,,,,images/4.png,4,Anne Lafitte,001,2020-12-05_17h59.43.874,lm,2020.2.8,Win32,60,,,1,8,29,14,1
,,e,2.965135,,,,,,images/0.png,0,Anne Lafitte,001,2020-12-05_17h59.43.874,lm,2020.2.8,Win32,60,,,1,9,30,10,1
,,e,1.07413,,,,,,images/-4.png,-4,Anne Lafitte,001,2020-12-05_17h59.43.874,lm,2020.2.8,Win32,60,,,1,10,31,6,1
,,o,1.082295,,,,,,images/8.png,8,Anne Lafitte,001,2020-12-05_17h59.43.874,lm,2020.2.8,Win32,60,,,1,11,32,18,1
,,o,1.024455,,,,,,images/6.png,6,Anne Lafitte,001,2020-12-05_17h59.43.874,lm,2020.2.8,Win32,60,,,1,12,33,16,1
,,o,1.78256,,,,,,images/3.png,3,Anne Lafitte,001,2020-12-05_17h59.43.874,lm,2020.2.8,Win32,60,,,1,13,34,13,1
,,e,1.58413,,,,,,images/-10.png,-10,Anne Lafitte,001,2020-12-05_17h59.43.874,lm,2020.2.8,Win32,60,,,1,14,35,0,1
,,e,1.267645,,,,,,images/-8.png,-8,Anne Lafitte,001,2020-12-05_17h59.43.874,lm,2020.2.8,Win32,60,,,1,15,36,2,1
,,o,2.682655,,,,,,images/2.png,2,Anne Lafitte,001,2020-12-05_17h59.43.874,lm,2020.2.8,Win32,60,,,1,16,37,12,1
,,o,0.72044,,,,,,images/7.png,7,Anne Lafitte,001,2020-12-05_17h59.43.874,lm,2020.2.8,Win32,60,,,1,17,38,17,1
,,e,0.83401,,,,,,images/-9.png,-9,Anne Lafitte,001,2020-12-05_17h59.43.874,lm,2020.2.8,Win32,60,,,1,18,39,1,1
,,e,0.80093,,,,,,images/-6.png,-6,Anne Lafitte,001,2020-12-05_17h59.43.874,lm,2020.2.8,Win32,60,,,1,19,40,4,1
,,e,1.52835,,,,,,images/1.png,1,Anne Lafitte,001,2020-12-05_17h59.43.874,lm,2020.2.8,Win32,60,,,1,20,41,11,1
,,o,0.91288,,,,,,images/5.png,5,Anne Lafitte,001,2020-12-05_17h59.43.874,lm,2020.2.8,Win32,60,,,2,0,42,15,1
,,o,0.842975,,,,,,images/8.png,8,Anne Lafitte,001,2020-12-05_17h59.43.874,lm,2020.2.8,Win32,60,,,2,1,43,18,1
,,e,1.555065,,,,,,images/-5.png,-5,Anne Lafitte,001,2020-12-05_17h59.43.874,lm,2020.2.8,Win32,60,,,2,2,44,5,1
,,o,1.284705,,,,,,images/0.png,0,Anne Lafitte,001,2020-12-05_17h59.43.874,lm,2020.2.8,Win32,60,,,2,3,45,10,1
,,e,0.802575,,,,,,images/-8.png,-8,Anne Lafitte,001,2020-12-05_17h59.43.874,lm,2020.2.8,Win32,60,,,2,4,46,2,1
,,e,1.60286,,,,,,images/-10.png,-10,Anne Lafitte,001,2020-12-05_17h59.43.874,lm,2020.2.8,Win32,60,,,2,5,47,0,1
,,o,1.183725,,,,,,images/9.png,9,Anne Lafitte,001,2020-12-05_17h59.43.874,lm,2020.2.8,Win32,60,,,2,6,48,19,1
,,o,1.31165,,,,,,images/4.png,4,Anne Lafitte,001,2020-12-05_17h59.43.874,lm,2020.2.8,Win32,60,,,2,7,49,14,1
,,e,1.229005,,,,,,images/-3.png,-3,Anne Lafitte,001,2020-12-05_17h59.43.874,lm,2020.2.8,Win32,60,,,2,8,50,7,1
,,o,0.78444,,,,,,images/6.png,6,Anne Lafitte,001,2020-12-05_17h59.43.874,lm,2020.2.8,Win32,60,,,2,9,51,16,1
,,e,0.750615,,,,,,images/-4.png,-4,Anne Lafitte,001,2020-12-05_17h59.43.874,lm,2020.2.8,Win32,60,,,2,10,52,6,1
,,o,3.55457,,,,,,images/2.png,2,Anne Lafitte,001,2020-12-05_17h59.43.874,lm,2020.2.8,Win32,60,,,2,11,53,12,1
,,e,1.979925,,,,,,images/-2.png,-2,Anne Lafitte,001,2020-12-05_17h59.43.874,lm,2020.2.8,Win32,60,,,2,12,54,8,1
,,e,0.800275,,,,,,images/-7.png,-7,Anne Lafitte,001,2020-12-05_17h59.43.874,lm,2020.2.8,Win32,60,,,2,13,55,3,1
,,o,0.56941,,,,,,images/7.png,7,Anne Lafitte,001,2020-12-05_17h59.43.874,lm,2020.2.8,Win32,60,,,2,14,56,17,1
,,o,0.601295,,,,,,images/10.png,10,Anne Lafitte,001,2020-12-05_17h59.43.874,lm,2020.2.8,Win32,60,,,2,15,57,20,1
,,e,1.217685,,,,,,images/-6.png,-6,Anne Lafitte,001,2020-12-05_17h59.43.874,lm,2020.2.8,Win32,60,,,2,16,58,4,1
,,o,1.63533,,,,,,images/-1.png,-1,Anne Lafitte,001,2020-12-05_17h59.43.874,lm,2020.2.8,Win32,60,,,2,17,59,9,1
,,e,0.71796,,,,,,images/-9.png,-9,Anne Lafitte,001,2020-12-05_17h59.43.874,lm,2020.2.8,Win32,60,,,2,18,60,1,1
,,o,0.699145,,,,,,images/1.png,1,Anne Lafitte,001,2020-12-05_17h59.43.874,lm,2020.2.8,Win32,60,,,2,19,61,11,1
,,o,1.26772,,,,,,images/3.png,3,Anne Lafitte,001,2020-12-05_17h59.43.874,lm,2020.2.8,Win32,60,,,2,20,62,13,1
,,e,1.73156,,,,,,images/1.png,1,Anne Lafitte,001,2020-12-05_17h59.43.874,lm,2020.2.8,Win32,60,,,3,0,63,11,1
,,e,1.1175,,,,,,images/-2.png,-2,Anne Lafitte,001,2020-12-05_17h59.43.874,lm,2020.2.8,Win32,60,,,3,1,64,8,1
,,e,0.968525,,,,,,images/-9.png,-9,Anne Lafitte,001,2020-12-05_17h59.43.874,lm,2020.2.8,Win32,60,,,3,2,65,1,1
,,o,2.965775,,,,,,images/4.png,4,Anne Lafitte,001,2020-12-05_17h59.43.874,lm,2020.2.8,Win32,60,,,3,3,66,14,1
,,o,2.683725,,,,,,images/3.png,3,Anne Lafitte,001,2020-12-05_17h59.43.874,lm,2020.2.8,Win32,60,,,3,4,67,13,1
,,e,2.49811,,,,,,images/-7.png,-7,Anne Lafitte,001,2020-12-05_17h59.43.874,lm,2020.2.8,Win32,60,,,3,5,68,3,1
,,e,0.566065,,,,,,images/-8.png,-8,Anne Lafitte,001,2020-12-05_17h59.43.874,lm,2020.2.8,Win32,60,,,3,6,69,2,1
,,e,1.386165,,,,,,images/-1.png,-1,Anne Lafitte,001,2020-12-05_17h59.43.874,lm,2020.2.8,Win32,60,,,3,7,70,9,1
,,o,0.90404,,,,,,images/10.png,10,Anne Lafitte,001,2020-12-05_17h59.43.874,lm,2020.2.8,Win32,60,,,3,8,71,20,1
,,o,1.37801,,,,,,images/5.png,5,Anne Lafitte,001,2020-12-05_17h59.43.874,lm,2020.2.8,Win32,60,,,3,9,72,15,1
,,o,1.486415,,,,,,images/7.png,7,Anne Lafitte,001,2020-12-05_17h59.43.874,lm,2020.2.8,Win32,60,,,3,10,73,17,1
,,o,0.66664,,,,,,images/6.png,6,Anne Lafitte,001,2020-12-05_17h59.43.874,lm,2020.2.8,Win32,60,,,3,11,74,16,1
,,o,0.50061,,,,,,images/8.png,8,Anne Lafitte,001,2020-12-05_17h59.43.874,lm,2020.2.8,Win32,60,,,3,12,75,18,1
,,o,0.433305,,,,,,images/2.png,2,Anne Lafitte,001,2020-12-05_17h59.43.874,lm,2020.2.8,Win32,60,,,3,13,76,12,1
,,e,0.66795,,,,,,images/-5.png,-5,Anne Lafitte,001,2020-12-05_17h59.43.874,lm,2020.2.8,Win32,60,,,3,14,77,5,1
,,e,0.60054,,,,,,images/-10.png,-10,Anne Lafitte,001,2020-12-05_17h59.43.874,lm,2020.2.8,Win32,60,,,3,15,78,0,1
,,o,0.684535,,,,,,images/9.png,9,Anne Lafitte,001,2020-12-05_17h59.43.874,lm,2020.2.8,Win32,60,,,3,16,79,19,1
,,e,1.483015,,,,,,images/0.png,0,Anne Lafitte,001,2020-12-05_17h59.43.874,lm,2020.2.8,Win32,60,,,3,17,80,10,1
,,e,0.46202,,,,,,images/-6.png,-6,Anne Lafitte,001,2020-12-05_17h59.43.874,lm,2020.2.8,Win32,60,,,3,18,81,4,1
,,e,1.193605,,,,,,images/-4.png,-4,Anne Lafitte,001,2020-12-05_17h59.43.874,lm,2020.2.8,Win32,60,,,3,19,82,6,1
,,e,1.83217,,,,,,images/-3.png,-3,Anne Lafitte,001,2020-12-05_17h59.43.874,lm,2020.2.8,Win32,60,,,3,20,83,7,1
