resp_txt.keys,resp_txt.rt,resp.keys,resp.rt,trials_training.thisRepN,trials_training.thisTrialN,trials_training.thisN,trials_training.thisIndex,trials_training.ran,line_file,offset,participant,session,date,expName,psychopyVersion,OS,frameRate,key_resp_after_training.keys,key_resp_after_training.rt,trials.thisRepN,trials.thisTrialN,trials.thisN,trials.thisIndex,trials.ran
space,27.641375,e,0.59298,0,0,0,3,1,images/-7.png,-7,Jeanne Lafitte,001,2020-12-05_18h09.51.565,lm,2020.2.8,Win32,60,,,,,,,
,,o,0.393545,0,1,1,18,1,images/8.png,8,Jeanne Lafitte,001,2020-12-05_18h09.51.565,lm,2020.2.8,Win32,60,,,,,,,
,,e,2.613025,0,2,2,7,1,images/-3.png,-3,Jeanne Lafitte,001,2020-12-05_18h09.51.565,lm,2020.2.8,Win32,60,,,,,,,
,,e,0.572725,0,3,3,1,1,images/-9.png,-9,Jeanne Lafitte,001,2020-12-05_18h09.51.565,lm,2020.2.8,Win32,60,,,,,,,
,,e,0.994755,0,4,4,6,1,images/-4.png,-4,Jeanne Lafitte,001,2020-12-05_18h09.51.565,lm,2020.2.8,Win32,60,,,,,,,
,,o,0.52107,0,5,5,17,1,images/7.png,7,Jeanne Lafitte,001,2020-12-05_18h09.51.565,lm,2020.2.8,Win32,60,,,,,,,
,,o,1.079765,0,6,6,11,1,images/1.png,1,Jeanne Lafitte,001,2020-12-05_18h09.51.565,lm,2020.2.8,Win32,60,,,,,,,
,,e,0.458035,0,7,7,5,1,images/-5.png,-5,Jeanne Lafitte,001,2020-12-05_18h09.51.565,lm,2020.2.8,Win32,60,,,,,,,
,,e,0.45203,0,8,8,0,1,images/-10.png,-10,Jeanne Lafitte,001,2020-12-05_18h09.51.565,lm,2020.2.8,Win32,60,,,,,,,
,,o,0.51349,0,9,9,20,1,images/10.png,10,Jeanne Lafitte,001,2020-12-05_18h09.51.565,lm,2020.2.8,Win32,60,,,,,,,
,,o,0.61772,0,10,10,19,1,images/9.png,9,Jeanne Lafitte,001,2020-12-05_18h09.51.565,lm,2020.2.8,Win32,60,,,,,,,
,,o,0.769005,0,11,11,14,1,images/4.png,4,Jeanne Lafitte,001,2020-12-05_18h09.51.565,lm,2020.2.8,Win32,60,,,,,,,
,,o,0.417835,0,12,12,15,1,images/5.png,5,Jeanne Lafitte,001,2020-12-05_18h09.51.565,lm,2020.2.8,Win32,60,,,,,,,
,,e,3.076335,0,13,13,9,1,images/-1.png,-1,Jeanne Lafitte,001,2020-12-05_18h09.51.565,lm,2020.2.8,Win32,60,,,,,,,
,,e,1.4072,0,14,14,8,1,images/-2.png,-2,Jeanne Lafitte,001,2020-12-05_18h09.51.565,lm,2020.2.8,Win32,60,,,,,,,
,,e,1.5066,0,15,15,10,1,images/0.png,0,Jeanne Lafitte,001,2020-12-05_18h09.51.565,lm,2020.2.8,Win32,60,,,,,,,
,,o,1.381545,0,16,16,12,1,images/2.png,2,Jeanne Lafitte,001,2020-12-05_18h09.51.565,lm,2020.2.8,Win32,60,,,,,,,
,,e,0.651495,0,17,17,2,1,images/-8.png,-8,Jeanne Lafitte,001,2020-12-05_18h09.51.565,lm,2020.2.8,Win32,60,,,,,,,
,,e,0.420495,0,18,18,4,1,images/-6.png,-6,Jeanne Lafitte,001,2020-12-05_18h09.51.565,lm,2020.2.8,Win32,60,,,,,,,
,,o,2.39628,0,19,19,13,1,images/3.png,3,Jeanne Lafitte,001,2020-12-05_18h09.51.565,lm,2020.2.8,Win32,60,,,,,,,
,,o,0.85074,0,20,20,16,1,images/6.png,6,Jeanne Lafitte,001,2020-12-05_18h09.51.565,lm,2020.2.8,Win32,60,,,,,,,
,,e,0.77979,,,,,,images/1.png,1,Jeanne Lafitte,001,2020-12-05_18h09.51.565,lm,2020.2.8,Win32,60,space,18.901965,0,0,0,11,1
,,e,1.281675,,,,,,images/3.png,3,Jeanne Lafitte,001,2020-12-05_18h09.51.565,lm,2020.2.8,Win32,60,,,0,1,1,13,1
,,e,0.381925,,,,,,images/-7.png,-7,Jeanne Lafitte,001,2020-12-05_18h09.51.565,lm,2020.2.8,Win32,60,,,0,2,2,3,1
,,e,2.26493,,,,,,images/2.png,2,Jeanne Lafitte,001,2020-12-05_18h09.51.565,lm,2020.2.8,Win32,60,,,0,3,3,12,1
,,e,0.31787,,,,,,images/-9.png,-9,Jeanne Lafitte,001,2020-12-05_18h09.51.565,lm,2020.2.8,Win32,60,,,0,4,4,1,1
,,o,0.323345,,,,,,images/8.png,8,Jeanne Lafitte,001,2020-12-05_18h09.51.565,lm,2020.2.8,Win32,60,,,0,5,5,18,1
,,o,1.267745,,,,,,images/7.png,7,Jeanne Lafitte,001,2020-12-05_18h09.51.565,lm,2020.2.8,Win32,60,,,0,6,6,17,1
,,e,0.385285,,,,,,images/-8.png,-8,Jeanne Lafitte,001,2020-12-05_18h09.51.565,lm,2020.2.8,Win32,60,,,0,7,7,2,1
,,o,1.999585,,,,,,images/5.png,5,Jeanne Lafitte,001,2020-12-05_18h09.51.565,lm,2020.2.8,Win32,60,,,0,8,8,15,1
,,e,2.00663,,,,,,images/4.png,4,Jeanne Lafitte,001,2020-12-05_18h09.51.565,lm,2020.2.8,Win32,60,,,0,9,9,14,1
,,e,0.28353,,,,,,images/-5.png,-5,Jeanne Lafitte,001,2020-12-05_18h09.51.565,lm,2020.2.8,Win32,60,,,0,10,10,5,1
,,e,1.41693,,,,,,images/0.png,0,Jeanne Lafitte,001,2020-12-05_18h09.51.565,lm,2020.2.8,Win32,60,,,0,11,11,10,1
,,e,0.499905,,,,,,images/-3.png,-3,Jeanne Lafitte,001,2020-12-05_18h09.51.565,lm,2020.2.8,Win32,60,,,0,12,12,7,1
,,o,0.379325,,,,,,images/9.png,9,Jeanne Lafitte,001,2020-12-05_18h09.51.565,lm,2020.2.8,Win32,60,,,0,13,13,19,1
,,e,0.43622,,,,,,images/-4.png,-4,Jeanne Lafitte,001,2020-12-05_18h09.51.565,lm,2020.2.8,Win32,60,,,0,14,14,6,1
,,e,0.526785,,,,,,images/-6.png,-6,Jeanne Lafitte,001,2020-12-05_18h09.51.565,lm,2020.2.8,Win32,60,,,0,15,15,4,1
,,e,0.6331,,,,,,images/-10.png,-10,Jeanne Lafitte,001,2020-12-05_18h09.51.565,lm,2020.2.8,Win32,60,,,0,16,16,0,1
,,o,0.948595,,,,,,images/10.png,10,Jeanne Lafitte,001,2020-12-05_18h09.51.565,lm,2020.2.8,Win32,60,,,0,17,17,20,1
,,o,1.36654,,,,,,images/6.png,6,Jeanne Lafitte,001,2020-12-05_18h09.51.565,lm,2020.2.8,Win32,60,,,0,18,18,16,1
,,e,0.406055,,,,,,images/-1.png,-1,Jeanne Lafitte,001,2020-12-05_18h09.51.565,lm,2020.2.8,Win32,60,,,0,19,19,9,1
,,e,0.506195,,,,,,images/-2.png,-2,Jeanne Lafitte,001,2020-12-05_18h09.51.565,lm,2020.2.8,Win32,60,,,0,20,20,8,1
,,o,0.902635,,,,,,images/7.png,7,Jeanne Lafitte,001,2020-12-05_18h09.51.565,lm,2020.2.8,Win32,60,,,1,0,21,17,1
,,e,1.031415,,,,,,images/-2.png,-2,Jeanne Lafitte,001,2020-12-05_18h09.51.565,lm,2020.2.8,Win32,60,,,1,1,22,8,1
,,e,1.896975,,,,,,images/4.png,4,Jeanne Lafitte,001,2020-12-05_18h09.51.565,lm,2020.2.8,Win32,60,,,1,2,23,14,1
,,e,0.3515,,,,,,images/-1.png,-1,Jeanne Lafitte,001,2020-12-05_18h09.51.565,lm,2020.2.8,Win32,60,,,1,3,24,9,1
,,e,0.88622,,,,,,images/0.png,0,Jeanne Lafitte,001,2020-12-05_18h09.51.565,lm,2020.2.8,Win32,60,,,1,4,25,10,1
,,e,0.55053,,,,,,images/-8.png,-8,Jeanne Lafitte,001,2020-12-05_18h09.51.565,lm,2020.2.8,Win32,60,,,1,5,26,2,1
,,o,1.10322,,,,,,images/8.png,8,Jeanne Lafitte,001,2020-12-05_18h09.51.565,lm,2020.2.8,Win32,60,,,1,6,27,18,1
,,o,0.800375,,,,,,images/5.png,5,Jeanne Lafitte,001,2020-12-05_18h09.51.565,lm,2020.2.8,Win32,60,,,1,7,28,15,1
,,e,0.417805,,,,,,images/-4.png,-4,Jeanne Lafitte,001,2020-12-05_18h09.51.565,lm,2020.2.8,Win32,60,,,1,8,29,6,1
,,e,1.19357,,,,,,images/1.png,1,Jeanne Lafitte,001,2020-12-05_18h09.51.565,lm,2020.2.8,Win32,60,,,1,9,30,11,1
,,e,0.41982,,,,,,images/-10.png,-10,Jeanne Lafitte,001,2020-12-05_18h09.51.565,lm,2020.2.8,Win32,60,,,1,10,31,0,1
,,e,1.050125,,,,,,images/-6.png,-6,Jeanne Lafitte,001,2020-12-05_18h09.51.565,lm,2020.2.8,Win32,60,,,1,11,32,4,1
,,o,0.751005,,,,,,images/9.png,9,Jeanne Lafitte,001,2020-12-05_18h09.51.565,lm,2020.2.8,Win32,60,,,1,12,33,19,1
,,e,0.384805,,,,,,images/-9.png,-9,Jeanne Lafitte,001,2020-12-05_18h09.51.565,lm,2020.2.8,Win32,60,,,1,13,34,1,1
,,o,1.06682,,,,,,images/6.png,6,Jeanne Lafitte,001,2020-12-05_18h09.51.565,lm,2020.2.8,Win32,60,,,1,14,35,16,1
,,e,0.41633,,,,,,images/-5.png,-5,Jeanne Lafitte,001,2020-12-05_18h09.51.565,lm,2020.2.8,Win32,60,,,1,15,36,5,1
,,o,0.83431,,,,,,images/10.png,10,Jeanne Lafitte,001,2020-12-05_18h09.51.565,lm,2020.2.8,Win32,60,,,1,16,37,20,1
,,e,1.467195,,,,,,images/2.png,2,Jeanne Lafitte,001,2020-12-05_18h09.51.565,lm,2020.2.8,Win32,60,,,1,17,38,12,1
,,e,0.467515,,,,,,images/-7.png,-7,Jeanne Lafitte,001,2020-12-05_18h09.51.565,lm,2020.2.8,Win32,60,,,1,18,39,3,1
,,o,1.799245,,,,,,images/3.png,3,Jeanne Lafitte,001,2020-12-05_18h09.51.565,lm,2020.2.8,Win32,60,,,1,19,40,13,1
,,e,1.395065,,,,,,images/-3.png,-3,Jeanne Lafitte,001,2020-12-05_18h09.51.565,lm,2020.2.8,Win32,60,,,1,20,41,7,1
,,o,1.55281,,,,,,images/6.png,6,Jeanne Lafitte,001,2020-12-05_18h09.51.565,lm,2020.2.8,Win32,60,,,2,0,42,16,1
,,e,0.400725,,,,,,images/-7.png,-7,Jeanne Lafitte,001,2020-12-05_18h09.51.565,lm,2020.2.8,Win32,60,,,2,1,43,3,1
,,e,0.283925,,,,,,images/-9.png,-9,Jeanne Lafitte,001,2020-12-05_18h09.51.565,lm,2020.2.8,Win32,60,,,2,2,44,1,1
,,e,0.90137,,,,,,images/-4.png,-4,Jeanne Lafitte,001,2020-12-05_18h09.51.565,lm,2020.2.8,Win32,60,,,2,3,45,6,1
,,e,0.30159,,,,,,images/-6.png,-6,Jeanne Lafitte,001,2020-12-05_18h09.51.565,lm,2020.2.8,Win32,60,,,2,4,46,4,1
,,e,1.66364,,,,,,images/-8.png,-8,Jeanne Lafitte,001,2020-12-05_18h09.51.565,lm,2020.2.8,Win32,60,,,2,5,47,2,1
,,o,1.28432,,,,,,images/9.png,9,Jeanne Lafitte,001,2020-12-05_18h09.51.565,lm,2020.2.8,Win32,60,,,2,6,48,19,1
,,o,0.666485,,,,,,images/7.png,7,Jeanne Lafitte,001,2020-12-05_18h09.51.565,lm,2020.2.8,Win32,60,,,2,7,49,17,1
,,e,1.16716,,,,,,images/-10.png,-10,Jeanne Lafitte,001,2020-12-05_18h09.51.565,lm,2020.2.8,Win32,60,,,2,8,50,0,1
,,e,1.349465,,,,,,images/2.png,2,Jeanne Lafitte,001,2020-12-05_18h09.51.565,lm,2020.2.8,Win32,60,,,2,9,51,12,1
,,e,2.247175,,,,,,images/5.png,5,Jeanne Lafitte,001,2020-12-05_18h09.51.565,lm,2020.2.8,Win32,60,,,2,10,52,15,1
,,o,1.773735,,,,,,images/3.png,3,Jeanne Lafitte,001,2020-12-05_18h09.51.565,lm,2020.2.8,Win32,60,,,2,11,53,13,1
,,e,0.44614,,,,,,images/-5.png,-5,Jeanne Lafitte,001,2020-12-05_18h09.51.565,lm,2020.2.8,Win32,60,,,2,12,54,5,1
,,o,2.094605,,,,,,images/0.png,0,Jeanne Lafitte,001,2020-12-05_18h09.51.565,lm,2020.2.8,Win32,60,,,2,13,55,10,1
,,o,2.081605,,,,,,images/1.png,1,Jeanne Lafitte,001,2020-12-05_18h09.51.565,lm,2020.2.8,Win32,60,,,2,14,56,11,1
,,o,0.66455,,,,,,images/4.png,4,Jeanne Lafitte,001,2020-12-05_18h09.51.565,lm,2020.2.8,Win32,60,,,2,15,57,14,1
,,e,0.80141,,,,,,images/-2.png,-2,Jeanne Lafitte,001,2020-12-05_18h09.51.565,lm,2020.2.8,Win32,60,,,2,16,58,8,1
,,e,0.602,,,,,,images/-1.png,-1,Jeanne Lafitte,001,2020-12-05_18h09.51.565,lm,2020.2.8,Win32,60,,,2,17,59,9,1
,,o,0.4515,,,,,,images/10.png,10,Jeanne Lafitte,001,2020-12-05_18h09.51.565,lm,2020.2.8,Win32,60,,,2,18,60,20,1
,,e,0.987015,,,,,,images/-3.png,-3,Jeanne Lafitte,001,2020-12-05_18h09.51.565,lm,2020.2.8,Win32,60,,,2,19,61,7,1
,,o,1.48006,,,,,,images/8.png,8,Jeanne Lafitte,001,2020-12-05_18h09.51.565,lm,2020.2.8,Win32,60,,,2,20,62,18,1
,,o,0.900995,,,,,,images/6.png,6,Jeanne Lafitte,001,2020-12-05_18h09.51.565,lm,2020.2.8,Win32,60,,,3,0,63,16,1
,,e,1.133025,,,,,,images/-2.png,-2,Jeanne Lafitte,001,2020-12-05_18h09.51.565,lm,2020.2.8,Win32,60,,,3,1,64,8,1
,,o,1.597265,,,,,,images/5.png,5,Jeanne Lafitte,001,2020-12-05_18h09.51.565,lm,2020.2.8,Win32,60,,,3,2,65,15,1
,,e,0.34944,,,,,,images/-8.png,-8,Jeanne Lafitte,001,2020-12-05_18h09.51.565,lm,2020.2.8,Win32,60,,,3,3,66,2,1
,,e,0.334045,,,,,,images/-10.png,-10,Jeanne Lafitte,001,2020-12-05_18h09.51.565,lm,2020.2.8,Win32,60,,,3,4,67,0,1
,,e,0.850325,,,,,,images/-7.png,-7,Jeanne Lafitte,001,2020-12-05_18h09.51.565,lm,2020.2.8,Win32,60,,,3,5,68,3,1
,,e,1.03322,,,,,,images/-1.png,-1,Jeanne Lafitte,001,2020-12-05_18h09.51.565,lm,2020.2.8,Win32,60,,,3,6,69,9,1
,,e,0.372335,,,,,,images/-6.png,-6,Jeanne Lafitte,001,2020-12-05_18h09.51.565,lm,2020.2.8,Win32,60,,,3,7,70,4,1
,,e,1.484425,,,,,,images/4.png,4,Jeanne Lafitte,001,2020-12-05_18h09.51.565,lm,2020.2.8,Win32,60,,,3,8,71,14,1
,,o,0.66668,,,,,,images/10.png,10,Jeanne Lafitte,001,2020-12-05_18h09.51.565,lm,2020.2.8,Win32,60,,,3,9,72,20,1
,,e,2.000475,,,,,,images/-5.png,-5,Jeanne Lafitte,001,2020-12-05_18h09.51.565,lm,2020.2.8,Win32,60,,,3,10,73,5,1
,,o,1.40997,,,,,,images/7.png,7,Jeanne Lafitte,001,2020-12-05_18h09.51.565,lm,2020.2.8,Win32,60,,,3,11,74,17,1
,,e,1.383,,,,,,images/-4.png,-4,Jeanne Lafitte,001,2020-12-05_18h09.51.565,lm,2020.2.8,Win32,60,,,3,12,75,6,1
,,o,0.51769,,,,,,images/8.png,8,Jeanne Lafitte,001,2020-12-05_18h09.51.565,lm,2020.2.8,Win32,60,,,3,13,76,18,1
,,o,0.365915,,,,,,images/9.png,9,Jeanne Lafitte,001,2020-12-05_18h09.51.565,lm,2020.2.8,Win32,60,,,3,14,77,19,1
,,o,2.16529,,,,,,images/0.png,0,Jeanne Lafitte,001,2020-12-05_18h09.51.565,lm,2020.2.8,Win32,60,,,3,15,78,10,1
,,o,2.22871,,,,,,images/1.png,1,Jeanne Lafitte,001,2020-12-05_18h09.51.565,lm,2020.2.8,Win32,60,,,3,16,79,11,1
,,o,0.45221,,,,,,images/3.png,3,Jeanne Lafitte,001,2020-12-05_18h09.51.565,lm,2020.2.8,Win32,60,,,3,17,80,13,1
,,o,1.61811,,,,,,images/2.png,2,Jeanne Lafitte,001,2020-12-05_18h09.51.565,lm,2020.2.8,Win32,60,,,3,18,81,12,1
,,e,0.982765,,,,,,images/-3.png,-3,Jeanne Lafitte,001,2020-12-05_18h09.51.565,lm,2020.2.8,Win32,60,,,3,19,82,7,1
,,e,0.349345,,,,,,images/-9.png,-9,Jeanne Lafitte,001,2020-12-05_18h09.51.565,lm,2020.2.8,Win32,60,,,3,20,83,1,1
