resp_txt.keys,resp_txt.rt,resp.keys,resp.rt,trials_training.thisRepN,trials_training.thisTrialN,trials_training.thisN,trials_training.thisIndex,trials_training.ran,line_file,offset,participant,session,date,expName,psychopyVersion,OS,frameRate,key_resp_after_training.keys,key_resp_after_training.rt,trials.thisRepN,trials.thisTrialN,trials.thisN,trials.thisIndex,trials.ran
space,20.514145,e,1.783885,0,0,0,4,1,images/-6.png,-6,Sylvain Lafitte,001,2020-12-05_18h17.39.522,lm,2020.2.8,Win32,60,,,,,,,
,,e,0.6506,0,1,1,0,1,images/-10.png,-10,Sylvain Lafitte,001,2020-12-05_18h17.39.522,lm,2020.2.8,Win32,60,,,,,,,
,,o,0.96716,0,2,2,19,1,images/9.png,9,Sylvain Lafitte,001,2020-12-05_18h17.39.522,lm,2020.2.8,Win32,60,,,,,,,
,,e,0.63382,0,3,3,2,1,images/-8.png,-8,Sylvain Lafitte,001,2020-12-05_18h17.39.522,lm,2020.2.8,Win32,60,,,,,,,
,,o,0.7344,0,4,4,17,1,images/7.png,7,Sylvain Lafitte,001,2020-12-05_18h17.39.522,lm,2020.2.8,Win32,60,,,,,,,
,,e,0.4005,0,5,5,1,1,images/-9.png,-9,Sylvain Lafitte,001,2020-12-05_18h17.39.522,lm,2020.2.8,Win32,60,,,,,,,
,,e,0.950485,0,6,6,9,1,images/-1.png,-1,Sylvain Lafitte,001,2020-12-05_18h17.39.522,lm,2020.2.8,Win32,60,,,,,,,
,,e,0.7157,0,7,7,11,1,images/1.png,1,Sylvain Lafitte,001,2020-12-05_18h17.39.522,lm,2020.2.8,Win32,60,,,,,,,
,,o,2.433075,0,8,8,16,1,images/6.png,6,Sylvain Lafitte,001,2020-12-05_18h17.39.522,lm,2020.2.8,Win32,60,,,,,,,
,,o,1.351715,0,9,9,15,1,images/5.png,5,Sylvain Lafitte,001,2020-12-05_18h17.39.522,lm,2020.2.8,Win32,60,,,,,,,
,,e,0.56813,0,10,10,8,1,images/-2.png,-2,Sylvain Lafitte,001,2020-12-05_18h17.39.522,lm,2020.2.8,Win32,60,,,,,,,
,,o,0.77097,0,11,11,14,1,images/4.png,4,Sylvain Lafitte,001,2020-12-05_18h17.39.522,lm,2020.2.8,Win32,60,,,,,,,
,,e,0.73477,0,12,12,10,1,images/0.png,0,Sylvain Lafitte,001,2020-12-05_18h17.39.522,lm,2020.2.8,Win32,60,,,,,,,
,,e,0.61569,0,13,13,7,1,images/-3.png,-3,Sylvain Lafitte,001,2020-12-05_18h17.39.522,lm,2020.2.8,Win32,60,,,,,,,
,,e,0.645555,0,14,14,5,1,images/-5.png,-5,Sylvain Lafitte,001,2020-12-05_18h17.39.522,lm,2020.2.8,Win32,60,,,,,,,
,,o,1.40275,0,15,15,12,1,images/2.png,2,Sylvain Lafitte,001,2020-12-05_18h17.39.522,lm,2020.2.8,Win32,60,,,,,,,
,,o,0.91692,0,16,16,18,1,images/8.png,8,Sylvain Lafitte,001,2020-12-05_18h17.39.522,lm,2020.2.8,Win32,60,,,,,,,
,,o,0.53366,0,17,17,20,1,images/10.png,10,Sylvain Lafitte,001,2020-12-05_18h17.39.522,lm,2020.2.8,Win32,60,,,,,,,
,,e,1.622565,0,18,18,13,1,images/3.png,3,Sylvain Lafitte,001,2020-12-05_18h17.39.522,lm,2020.2.8,Win32,60,,,,,,,
,,e,0.534605,0,19,19,3,1,images/-7.png,-7,Sylvain Lafitte,001,2020-12-05_18h17.39.522,lm,2020.2.8,Win32,60,,,,,,,
,,e,0.584825,0,20,20,6,1,images/-4.png,-4,Sylvain Lafitte,001,2020-12-05_18h17.39.522,lm,2020.2.8,Win32,60,,,,,,,
,,o,0.461285,,,,,,images/9.png,9,Sylvain Lafitte,001,2020-12-05_18h17.39.522,lm,2020.2.8,Win32,60,space,6.14925,0,0,0,19,1
,,e,0.78886,,,,,,images/-2.png,-2,Sylvain Lafitte,001,2020-12-05_18h17.39.522,lm,2020.2.8,Win32,60,,,0,1,1,8,1
,,e,1.024575,,,,,,images/1.png,1,Sylvain Lafitte,001,2020-12-05_18h17.39.522,lm,2020.2.8,Win32,60,,,0,2,2,11,1
,,o,1.70013,,,,,,images/8.png,8,Sylvain Lafitte,001,2020-12-05_18h17.39.522,lm,2020.2.8,Win32,60,,,0,3,3,18,1
,,e,0.681155,,,,,,images/-10.png,-10,Sylvain Lafitte,001,2020-12-05_18h17.39.522,lm,2020.2.8,Win32,60,,,0,4,4,0,1
,,e,0.515005,,,,,,images/-1.png,-1,Sylvain Lafitte,001,2020-12-05_18h17.39.522,lm,2020.2.8,Win32,60,,,0,5,5,9,1
,,o,1.880285,,,,,,images/3.png,3,Sylvain Lafitte,001,2020-12-05_18h17.39.522,lm,2020.2.8,Win32,60,,,0,6,6,13,1
,,e,0.4468,,,,,,images/-8.png,-8,Sylvain Lafitte,001,2020-12-05_18h17.39.522,lm,2020.2.8,Win32,60,,,0,7,7,2,1
,,o,0.653925,,,,,,images/10.png,10,Sylvain Lafitte,001,2020-12-05_18h17.39.522,lm,2020.2.8,Win32,60,,,0,8,8,20,1
,,o,0.74655,,,,,,images/5.png,5,Sylvain Lafitte,001,2020-12-05_18h17.39.522,lm,2020.2.8,Win32,60,,,0,9,9,15,1
,,o,0.702015,,,,,,images/2.png,2,Sylvain Lafitte,001,2020-12-05_18h17.39.522,lm,2020.2.8,Win32,60,,,0,10,10,12,1
,,e,0.81935,,,,,,images/-4.png,-4,Sylvain Lafitte,001,2020-12-05_18h17.39.522,lm,2020.2.8,Win32,60,,,0,11,11,6,1
,,o,0.73144,,,,,,images/4.png,4,Sylvain Lafitte,001,2020-12-05_18h17.39.522,lm,2020.2.8,Win32,60,,,0,12,12,14,1
,,o,0.801375,,,,,,images/6.png,6,Sylvain Lafitte,001,2020-12-05_18h17.39.522,lm,2020.2.8,Win32,60,,,0,13,13,16,1
,,e,0.80301,,,,,,images/0.png,0,Sylvain Lafitte,001,2020-12-05_18h17.39.522,lm,2020.2.8,Win32,60,,,0,14,14,10,1
,,o,0.435735,,,,,,images/7.png,7,Sylvain Lafitte,001,2020-12-05_18h17.39.522,lm,2020.2.8,Win32,60,,,0,15,15,17,1
,,e,0.45055,,,,,,images/-5.png,-5,Sylvain Lafitte,001,2020-12-05_18h17.39.522,lm,2020.2.8,Win32,60,,,0,16,16,5,1
,,e,0.615705,,,,,,images/-6.png,-6,Sylvain Lafitte,001,2020-12-05_18h17.39.522,lm,2020.2.8,Win32,60,,,0,17,17,4,1
,,e,0.49993,,,,,,images/-9.png,-9,Sylvain Lafitte,001,2020-12-05_18h17.39.522,lm,2020.2.8,Win32,60,,,0,18,18,1,1
,,e,0.780555,,,,,,images/-3.png,-3,Sylvain Lafitte,001,2020-12-05_18h17.39.522,lm,2020.2.8,Win32,60,,,0,19,19,7,1
,,e,0.451755,,,,,,images/-7.png,-7,Sylvain Lafitte,001,2020-12-05_18h17.39.522,lm,2020.2.8,Win32,60,,,0,20,20,3,1
,,o,1.383585,,,,,,images/2.png,2,Sylvain Lafitte,001,2020-12-05_18h17.39.522,lm,2020.2.8,Win32,60,,,1,0,21,12,1
,,o,0.466525,,,,,,images/8.png,8,Sylvain Lafitte,001,2020-12-05_18h17.39.522,lm,2020.2.8,Win32,60,,,1,1,22,18,1
,,e,0.799955,,,,,,images/-2.png,-2,Sylvain Lafitte,001,2020-12-05_18h17.39.522,lm,2020.2.8,Win32,60,,,1,2,23,8,1
,,o,0.75403,,,,,,images/3.png,3,Sylvain Lafitte,001,2020-12-05_18h17.39.522,lm,2020.2.8,Win32,60,,,1,3,24,13,1
,,o,0.42001,,,,,,images/4.png,4,Sylvain Lafitte,001,2020-12-05_18h17.39.522,lm,2020.2.8,Win32,60,,,1,4,25,14,1
,,e,1.30337,,,,,,images/-1.png,-1,Sylvain Lafitte,001,2020-12-05_18h17.39.522,lm,2020.2.8,Win32,60,,,1,5,26,9,1
,,o,0.65278,,,,,,images/1.png,1,Sylvain Lafitte,001,2020-12-05_18h17.39.522,lm,2020.2.8,Win32,60,,,1,6,27,11,1
,,e,0.4229,,,,,,images/-9.png,-9,Sylvain Lafitte,001,2020-12-05_18h17.39.522,lm,2020.2.8,Win32,60,,,1,7,28,1,1
,,o,0.49,,,,,,images/6.png,6,Sylvain Lafitte,001,2020-12-05_18h17.39.522,lm,2020.2.8,Win32,60,,,1,8,29,16,1
,,e,0.41812,,,,,,images/-10.png,-10,Sylvain Lafitte,001,2020-12-05_18h17.39.522,lm,2020.2.8,Win32,60,,,1,9,30,0,1
,,e,0.45203,,,,,,images/-8.png,-8,Sylvain Lafitte,001,2020-12-05_18h17.39.522,lm,2020.2.8,Win32,60,,,1,10,31,2,1
,,o,0.44906,,,,,,images/10.png,10,Sylvain Lafitte,001,2020-12-05_18h17.39.522,lm,2020.2.8,Win32,60,,,1,11,32,20,1
,,e,0.54962,,,,,,images/-7.png,-7,Sylvain Lafitte,001,2020-12-05_18h17.39.522,lm,2020.2.8,Win32,60,,,1,12,33,3,1
,,o,0.70085,,,,,,images/0.png,0,Sylvain Lafitte,001,2020-12-05_18h17.39.522,lm,2020.2.8,Win32,60,,,1,13,34,10,1
,,o,0.574825,,,,,,images/7.png,7,Sylvain Lafitte,001,2020-12-05_18h17.39.522,lm,2020.2.8,Win32,60,,,1,14,35,17,1
,,e,0.950565,,,,,,images/-3.png,-3,Sylvain Lafitte,001,2020-12-05_18h17.39.522,lm,2020.2.8,Win32,60,,,1,15,36,7,1
,,o,0.536985,,,,,,images/5.png,5,Sylvain Lafitte,001,2020-12-05_18h17.39.522,lm,2020.2.8,Win32,60,,,1,16,37,15,1
,,e,0.49525,,,,,,images/-5.png,-5,Sylvain Lafitte,001,2020-12-05_18h17.39.522,lm,2020.2.8,Win32,60,,,1,17,38,5,1
,,e,0.54813,,,,,,images/-4.png,-4,Sylvain Lafitte,001,2020-12-05_18h17.39.522,lm,2020.2.8,Win32,60,,,1,18,39,6,1
,,o,0.51729,,,,,,images/9.png,9,Sylvain Lafitte,001,2020-12-05_18h17.39.522,lm,2020.2.8,Win32,60,,,1,19,40,19,1
,,e,0.516995,,,,,,images/-6.png,-6,Sylvain Lafitte,001,2020-12-05_18h17.39.522,lm,2020.2.8,Win32,60,,,1,20,41,4,1
,,e,0.65226,,,,,,images/-3.png,-3,Sylvain Lafitte,001,2020-12-05_18h17.39.522,lm,2020.2.8,Win32,60,,,2,0,42,7,1
,,e,0.45047,,,,,,images/-8.png,-8,Sylvain Lafitte,001,2020-12-05_18h17.39.522,lm,2020.2.8,Win32,60,,,2,1,43,2,1
,,o,0.566755,,,,,,images/8.png,8,Sylvain Lafitte,001,2020-12-05_18h17.39.522,lm,2020.2.8,Win32,60,,,2,2,44,18,1
,,o,0.40085,,,,,,images/10.png,10,Sylvain Lafitte,001,2020-12-05_18h17.39.522,lm,2020.2.8,Win32,60,,,2,3,45,20,1
,,e,0.48527,,,,,,images/-7.png,-7,Sylvain Lafitte,001,2020-12-05_18h17.39.522,lm,2020.2.8,Win32,60,,,2,4,46,3,1
,,o,0.702405,,,,,,images/2.png,2,Sylvain Lafitte,001,2020-12-05_18h17.39.522,lm,2020.2.8,Win32,60,,,2,5,47,12,1
,,o,0.89983,,,,,,images/9.png,9,Sylvain Lafitte,001,2020-12-05_18h17.39.522,lm,2020.2.8,Win32,60,,,2,6,48,19,1
,,e,0.484215,,,,,,images/-10.png,-10,Sylvain Lafitte,001,2020-12-05_18h17.39.522,lm,2020.2.8,Win32,60,,,2,7,49,0,1
,,e,2.01769,,,,,,images/0.png,0,Sylvain Lafitte,001,2020-12-05_18h17.39.522,lm,2020.2.8,Win32,60,,,2,8,50,10,1
,,e,1.081145,,,,,,images/-2.png,-2,Sylvain Lafitte,001,2020-12-05_18h17.39.522,lm,2020.2.8,Win32,60,,,2,9,51,8,1
,,o,0.618815,,,,,,images/6.png,6,Sylvain Lafitte,001,2020-12-05_18h17.39.522,lm,2020.2.8,Win32,60,,,2,10,52,16,1
,,o,0.367465,,,,,,images/5.png,5,Sylvain Lafitte,001,2020-12-05_18h17.39.522,lm,2020.2.8,Win32,60,,,2,11,53,15,1
,,e,0.92073,,,,,,images/-1.png,-1,Sylvain Lafitte,001,2020-12-05_18h17.39.522,lm,2020.2.8,Win32,60,,,2,12,54,9,1
,,e,0.435575,,,,,,images/-9.png,-9,Sylvain Lafitte,001,2020-12-05_18h17.39.522,lm,2020.2.8,Win32,60,,,2,13,55,1,1
,,o,0.567385,,,,,,images/7.png,7,Sylvain Lafitte,001,2020-12-05_18h17.39.522,lm,2020.2.8,Win32,60,,,2,14,56,17,1
,,o,0.44971,,,,,,images/3.png,3,Sylvain Lafitte,001,2020-12-05_18h17.39.522,lm,2020.2.8,Win32,60,,,2,15,57,13,1
,,o,0.517195,,,,,,images/4.png,4,Sylvain Lafitte,001,2020-12-05_18h17.39.522,lm,2020.2.8,Win32,60,,,2,16,58,14,1
,,o,0.538945,,,,,,images/1.png,1,Sylvain Lafitte,001,2020-12-05_18h17.39.522,lm,2020.2.8,Win32,60,,,2,17,59,11,1
,,e,0.36722,,,,,,images/-6.png,-6,Sylvain Lafitte,001,2020-12-05_18h17.39.522,lm,2020.2.8,Win32,60,,,2,18,60,4,1
,,e,0.41364,,,,,,images/-5.png,-5,Sylvain Lafitte,001,2020-12-05_18h17.39.522,lm,2020.2.8,Win32,60,,,2,19,61,5,1
,,e,0.367065,,,,,,images/-4.png,-4,Sylvain Lafitte,001,2020-12-05_18h17.39.522,lm,2020.2.8,Win32,60,,,2,20,62,6,1
,,e,0.601445,,,,,,images/-1.png,-1,Sylvain Lafitte,001,2020-12-05_18h17.39.522,lm,2020.2.8,Win32,60,,,3,0,63,9,1
,,e,0.400615,,,,,,images/-10.png,-10,Sylvain Lafitte,001,2020-12-05_18h17.39.522,lm,2020.2.8,Win32,60,,,3,1,64,0,1
,,o,0.384995,,,,,,images/10.png,10,Sylvain Lafitte,001,2020-12-05_18h17.39.522,lm,2020.2.8,Win32,60,,,3,2,65,20,1
,,o,0.4004,,,,,,images/9.png,9,Sylvain Lafitte,001,2020-12-05_18h17.39.522,lm,2020.2.8,Win32,60,,,3,3,66,19,1
,,o,0.44402,,,,,,images/7.png,7,Sylvain Lafitte,001,2020-12-05_18h17.39.522,lm,2020.2.8,Win32,60,,,3,4,67,17,1
,,e,0.71797,,,,,,images/-4.png,-4,Sylvain Lafitte,001,2020-12-05_18h17.39.522,lm,2020.2.8,Win32,60,,,3,5,68,6,1
,,e,0.670525,,,,,,images/-6.png,-6,Sylvain Lafitte,001,2020-12-05_18h17.39.522,lm,2020.2.8,Win32,60,,,3,6,69,4,1
,,o,0.585855,,,,,,images/5.png,5,Sylvain Lafitte,001,2020-12-05_18h17.39.522,lm,2020.2.8,Win32,60,,,3,7,70,15,1
,,o,0.818995,,,,,,images/6.png,6,Sylvain Lafitte,001,2020-12-05_18h17.39.522,lm,2020.2.8,Win32,60,,,3,8,71,16,1
,,o,0.86993,,,,,,images/2.png,2,Sylvain Lafitte,001,2020-12-05_18h17.39.522,lm,2020.2.8,Win32,60,,,3,9,72,12,1
,,e,1.14987,,,,,,images/-2.png,-2,Sylvain Lafitte,001,2020-12-05_18h17.39.522,lm,2020.2.8,Win32,60,,,3,10,73,8,1
,,e,0.50115,,,,,,images/-8.png,-8,Sylvain Lafitte,001,2020-12-05_18h17.39.522,lm,2020.2.8,Win32,60,,,3,11,74,2,1
,,e,0.484395,,,,,,images/-9.png,-9,Sylvain Lafitte,001,2020-12-05_18h17.39.522,lm,2020.2.8,Win32,60,,,3,12,75,1,1
,,e,0.583905,,,,,,images/-3.png,-3,Sylvain Lafitte,001,2020-12-05_18h17.39.522,lm,2020.2.8,Win32,60,,,3,13,76,7,1
,,o,1.384815,,,,,,images/0.png,0,Sylvain Lafitte,001,2020-12-05_18h17.39.522,lm,2020.2.8,Win32,60,,,3,14,77,10,1
,,e,0.73159,,,,,,images/-5.png,-5,Sylvain Lafitte,001,2020-12-05_18h17.39.522,lm,2020.2.8,Win32,60,,,3,15,78,5,1
,,e,0.80136,,,,,,images/1.png,1,Sylvain Lafitte,001,2020-12-05_18h17.39.522,lm,2020.2.8,Win32,60,,,3,16,79,11,1
,,e,0.71733,,,,,,images/-7.png,-7,Sylvain Lafitte,001,2020-12-05_18h17.39.522,lm,2020.2.8,Win32,60,,,3,17,80,3,1
,,o,0.65104,,,,,,images/4.png,4,Sylvain Lafitte,001,2020-12-05_18h17.39.522,lm,2020.2.8,Win32,60,,,3,18,81,14,1
,,o,0.53957,,,,,,images/3.png,3,Sylvain Lafitte,001,2020-12-05_18h17.39.522,lm,2020.2.8,Win32,60,,,3,19,82,13,1
,,o,0.634135,,,,,,images/8.png,8,Sylvain Lafitte,001,2020-12-05_18h17.39.522,lm,2020.2.8,Win32,60,,,3,20,83,18,1
