resp_txt.keys,resp_txt.rt,resp.keys,resp.rt,trials_training.thisRepN,trials_training.thisTrialN,trials_training.thisN,trials_training.thisIndex,trials_training.ran,line_file,offset,participant,session,date,expName,psychopyVersion,OS,frameRate,key_resp_after_training.keys,key_resp_after_training.rt,trials.thisRepN,trials.thisTrialN,trials.thisN,trials.thisIndex,trials.ran
space,110.92623,e,30.264195,0,0,0,12,1,images/2.png,2,denicole,001,2020-12-06_15h05.00.842,lm,2020.2.8,Win32,60,,,,,,,
,,o,13.31811,0,1,1,17,1,images/7.png,7,denicole,001,2020-12-06_15h05.00.842,lm,2020.2.8,Win32,60,,,,,,,
,,e,14.609525,0,2,2,5,1,images/-5.png,-5,denicole,001,2020-12-06_15h05.00.842,lm,2020.2.8,Win32,60,,,,,,,
,,o,7.76291,0,3,3,13,1,images/3.png,3,denicole,001,2020-12-06_15h05.00.842,lm,2020.2.8,Win32,60,,,,,,,
,,e,7.299775,0,4,4,1,1,images/-9.png,-9,denicole,001,2020-12-06_15h05.00.842,lm,2020.2.8,Win32,60,,,,,,,
,,e,6.83512,0,5,5,7,1,images/-3.png,-3,denicole,001,2020-12-06_15h05.00.842,lm,2020.2.8,Win32,60,,,,,,,
,,o,5.042775,0,6,6,19,1,images/9.png,9,denicole,001,2020-12-06_15h05.00.842,lm,2020.2.8,Win32,60,,,,,,,
,,e,5.67184,0,7,7,8,1,images/-2.png,-2,denicole,001,2020-12-06_15h05.00.842,lm,2020.2.8,Win32,60,,,,,,,
,,e,13.368825,0,8,8,9,1,images/-1.png,-1,denicole,001,2020-12-06_15h05.00.842,lm,2020.2.8,Win32,60,,,,,,,
,,e,4.22181,0,9,9,3,1,images/-7.png,-7,denicole,001,2020-12-06_15h05.00.842,lm,2020.2.8,Win32,60,,,,,,,
,,e,8.206495,0,10,10,4,1,images/-6.png,-6,denicole,001,2020-12-06_15h05.00.842,lm,2020.2.8,Win32,60,,,,,,,
,,o,29.494355,0,11,11,10,1,images/0.png,0,denicole,001,2020-12-06_15h05.00.842,lm,2020.2.8,Win32,60,,,,,,,
,,e,5.72024,0,12,12,2,1,images/-8.png,-8,denicole,001,2020-12-06_15h05.00.842,lm,2020.2.8,Win32,60,,,,,,,
,,e,8.99503,0,13,13,11,1,images/1.png,1,denicole,001,2020-12-06_15h05.00.842,lm,2020.2.8,Win32,60,,,,,,,
,,o,4.499705,0,14,14,15,1,images/5.png,5,denicole,001,2020-12-06_15h05.00.842,lm,2020.2.8,Win32,60,,,,,,,
,,o,3.92567,0,15,15,14,1,images/4.png,4,denicole,001,2020-12-06_15h05.00.842,lm,2020.2.8,Win32,60,,,,,,,
,,o,3.770085,0,16,16,16,1,images/6.png,6,denicole,001,2020-12-06_15h05.00.842,lm,2020.2.8,Win32,60,,,,,,,
,,e,3.03694,0,17,17,0,1,images/-10.png,-10,denicole,001,2020-12-06_15h05.00.842,lm,2020.2.8,Win32,60,,,,,,,
,,o,3.727875,0,18,18,20,1,images/10.png,10,denicole,001,2020-12-06_15h05.00.842,lm,2020.2.8,Win32,60,,,,,,,
,,o,3.6676,0,19,19,18,1,images/8.png,8,denicole,001,2020-12-06_15h05.00.842,lm,2020.2.8,Win32,60,,,,,,,
,,e,6.52944,0,20,20,6,1,images/-4.png,-4,denicole,001,2020-12-06_15h05.00.842,lm,2020.2.8,Win32,60,,,,,,,
,,o,6.07506,,,,,,images/2.png,2,denicole,001,2020-12-06_15h05.00.842,lm,2020.2.8,Win32,60,space,10.734305,0,0,0,12,1
,,e,3.49179,,,,,,images/-8.png,-8,denicole,001,2020-12-06_15h05.00.842,lm,2020.2.8,Win32,60,,,0,1,1,2,1
,,e,4.04605,,,,,,images/-5.png,-5,denicole,001,2020-12-06_15h05.00.842,lm,2020.2.8,Win32,60,,,0,2,2,5,1
,,o,3.98826,,,,,,images/1.png,1,denicole,001,2020-12-06_15h05.00.842,lm,2020.2.8,Win32,60,,,0,3,3,11,1
,,e,3.51392,,,,,,images/-7.png,-7,denicole,001,2020-12-06_15h05.00.842,lm,2020.2.8,Win32,60,,,0,4,4,3,1
,,e,3.49103,,,,,,images/0.png,0,denicole,001,2020-12-06_15h05.00.842,lm,2020.2.8,Win32,60,,,0,5,5,10,1
,,o,4.940335,,,,,,images/3.png,3,denicole,001,2020-12-06_15h05.00.842,lm,2020.2.8,Win32,60,,,0,6,6,13,1
,,e,3.082235,,,,,,images/-10.png,-10,denicole,001,2020-12-06_15h05.00.842,lm,2020.2.8,Win32,60,,,0,7,7,0,1
,,e,3.23651,,,,,,images/-6.png,-6,denicole,001,2020-12-06_15h05.00.842,lm,2020.2.8,Win32,60,,,0,8,8,4,1
,,o,3.320645,,,,,,images/7.png,7,denicole,001,2020-12-06_15h05.00.842,lm,2020.2.8,Win32,60,,,0,9,9,17,1
,,o,3.42187,,,,,,images/9.png,9,denicole,001,2020-12-06_15h05.00.842,lm,2020.2.8,Win32,60,,,0,10,10,19,1
,,e,3.929515,,,,,,images/-3.png,-3,denicole,001,2020-12-06_15h05.00.842,lm,2020.2.8,Win32,60,,,0,11,11,7,1
,,o,3.046175,,,,,,images/6.png,6,denicole,001,2020-12-06_15h05.00.842,lm,2020.2.8,Win32,60,,,0,12,12,16,1
,,o,3.386345,,,,,,images/8.png,8,denicole,001,2020-12-06_15h05.00.842,lm,2020.2.8,Win32,60,,,0,13,13,18,1
,,o,2.68012,,,,,,images/10.png,10,denicole,001,2020-12-06_15h05.00.842,lm,2020.2.8,Win32,60,,,0,14,14,20,1
,,o,2.60754,,,,,,images/5.png,5,denicole,001,2020-12-06_15h05.00.842,lm,2020.2.8,Win32,60,,,0,15,15,15,1
,,e,2.54458,,,,,,images/-2.png,-2,denicole,001,2020-12-06_15h05.00.842,lm,2020.2.8,Win32,60,,,0,16,16,8,1
,,e,3.003385,,,,,,images/-9.png,-9,denicole,001,2020-12-06_15h05.00.842,lm,2020.2.8,Win32,60,,,0,17,17,1,1
,,o,3.98872,,,,,,images/4.png,4,denicole,001,2020-12-06_15h05.00.842,lm,2020.2.8,Win32,60,,,0,18,18,14,1
,,e,3.014965,,,,,,images/-4.png,-4,denicole,001,2020-12-06_15h05.00.842,lm,2020.2.8,Win32,60,,,0,19,19,6,1
,,e,5.648785,,,,,,images/-1.png,-1,denicole,001,2020-12-06_15h05.00.842,lm,2020.2.8,Win32,60,,,0,20,20,9,1
,,e,2.56502,,,,,,images/-6.png,-6,denicole,001,2020-12-06_15h05.00.842,lm,2020.2.8,Win32,60,,,1,0,21,4,1
,,o,2.262285,,,,,,images/10.png,10,denicole,001,2020-12-06_15h05.00.842,lm,2020.2.8,Win32,60,,,1,1,22,20,1
,,e,2.803195,,,,,,images/0.png,0,denicole,001,2020-12-06_15h05.00.842,lm,2020.2.8,Win32,60,,,1,2,23,10,1
,,e,4.981075,,,,,,images/-2.png,-2,denicole,001,2020-12-06_15h05.00.842,lm,2020.2.8,Win32,60,,,1,3,24,8,1
,,e,3.06543,,,,,,images/-4.png,-4,denicole,001,2020-12-06_15h05.00.842,lm,2020.2.8,Win32,60,,,1,4,25,6,1
,,e,3.53458,,,,,,images/-1.png,-1,denicole,001,2020-12-06_15h05.00.842,lm,2020.2.8,Win32,60,,,1,5,26,9,1
,,o,3.669425,,,,,,images/7.png,7,denicole,001,2020-12-06_15h05.00.842,lm,2020.2.8,Win32,60,,,1,6,27,17,1
,,o,3.89554,,,,,,images/3.png,3,denicole,001,2020-12-06_15h05.00.842,lm,2020.2.8,Win32,60,,,1,7,28,13,1
,,e,3.435625,,,,,,images/-8.png,-8,denicole,001,2020-12-06_15h05.00.842,lm,2020.2.8,Win32,60,,,1,8,29,2,1
,,e,3.65258,,,,,,images/-10.png,-10,denicole,001,2020-12-06_15h05.00.842,lm,2020.2.8,Win32,60,,,1,9,30,0,1
,,e,3.800985,,,,,,images/-3.png,-3,denicole,001,2020-12-06_15h05.00.842,lm,2020.2.8,Win32,60,,,1,10,31,7,1
,,o,3.57064,,,,,,images/4.png,4,denicole,001,2020-12-06_15h05.00.842,lm,2020.2.8,Win32,60,,,1,11,32,14,1
,,e,3.573755,,,,,,images/-7.png,-7,denicole,001,2020-12-06_15h05.00.842,lm,2020.2.8,Win32,60,,,1,12,33,3,1
,,o,5.487535,,,,,,images/1.png,1,denicole,001,2020-12-06_15h05.00.842,lm,2020.2.8,Win32,60,,,1,13,34,11,1
,,o,2.380315,,,,,,images/9.png,9,denicole,001,2020-12-06_15h05.00.842,lm,2020.2.8,Win32,60,,,1,14,35,19,1
,,o,2.465435,,,,,,images/6.png,6,denicole,001,2020-12-06_15h05.00.842,lm,2020.2.8,Win32,60,,,1,15,36,16,1
,,o,4.87648,,,,,,images/2.png,2,denicole,001,2020-12-06_15h05.00.842,lm,2020.2.8,Win32,60,,,1,16,37,12,1
,,o,2.78994,,,,,,images/5.png,5,denicole,001,2020-12-06_15h05.00.842,lm,2020.2.8,Win32,60,,,1,17,38,15,1
,,e,2.448055,,,,,,images/-5.png,-5,denicole,001,2020-12-06_15h05.00.842,lm,2020.2.8,Win32,60,,,1,18,39,5,1
,,o,2.24258,,,,,,images/8.png,8,denicole,001,2020-12-06_15h05.00.842,lm,2020.2.8,Win32,60,,,1,19,40,18,1
,,e,2.28619,,,,,,images/-9.png,-9,denicole,001,2020-12-06_15h05.00.842,lm,2020.2.8,Win32,60,,,1,20,41,1,1
,,o,5.36996,,,,,,images/2.png,2,denicole,001,2020-12-06_15h05.00.842,lm,2020.2.8,Win32,60,,,2,0,42,12,1
,,e,2.58147,,,,,,images/-2.png,-2,denicole,001,2020-12-06_15h05.00.842,lm,2020.2.8,Win32,60,,,2,1,43,8,1
,,o,2.19928,,,,,,images/7.png,7,denicole,001,2020-12-06_15h05.00.842,lm,2020.2.8,Win32,60,,,2,2,44,17,1
,,e,2.20543,,,,,,images/-5.png,-5,denicole,001,2020-12-06_15h05.00.842,lm,2020.2.8,Win32,60,,,2,3,45,5,1
,,e,2.71512,,,,,,images/-6.png,-6,denicole,001,2020-12-06_15h05.00.842,lm,2020.2.8,Win32,60,,,2,4,46,4,1
,,o,2.144705,,,,,,images/9.png,9,denicole,001,2020-12-06_15h05.00.842,lm,2020.2.8,Win32,60,,,2,5,47,19,1
,,e,2.8399,,,,,,images/-9.png,-9,denicole,001,2020-12-06_15h05.00.842,lm,2020.2.8,Win32,60,,,2,6,48,1,1
,,o,2.119745,,,,,,images/8.png,8,denicole,001,2020-12-06_15h05.00.842,lm,2020.2.8,Win32,60,,,2,7,49,18,1
,,e,1.999685,,,,,,images/-10.png,-10,denicole,001,2020-12-06_15h05.00.842,lm,2020.2.8,Win32,60,,,2,8,50,0,1
,,e,3.26415,,,,,,images/0.png,0,denicole,001,2020-12-06_15h05.00.842,lm,2020.2.8,Win32,60,,,2,9,51,10,1
,,e,2.45783,,,,,,images/-7.png,-7,denicole,001,2020-12-06_15h05.00.842,lm,2020.2.8,Win32,60,,,2,10,52,3,1
,,o,2.07665,,,,,,images/10.png,10,denicole,001,2020-12-06_15h05.00.842,lm,2020.2.8,Win32,60,,,2,11,53,20,1
,,o,3.415405,,,,,,images/5.png,5,denicole,001,2020-12-06_15h05.00.842,lm,2020.2.8,Win32,60,,,2,12,54,15,1
,,o,5.544765,,,,,,images/-3.png,-3,denicole,001,2020-12-06_15h05.00.842,lm,2020.2.8,Win32,60,,,2,13,55,7,1
,,o,2.11525,,,,,,images/4.png,4,denicole,001,2020-12-06_15h05.00.842,lm,2020.2.8,Win32,60,,,2,14,56,14,1
,,e,2.165945,,,,,,images/-4.png,-4,denicole,001,2020-12-06_15h05.00.842,lm,2020.2.8,Win32,60,,,2,15,57,6,1
,,o,3.73266,,,,,,images/6.png,6,denicole,001,2020-12-06_15h05.00.842,lm,2020.2.8,Win32,60,,,2,16,58,16,1
,,o,2.742025,,,,,,images/-1.png,-1,denicole,001,2020-12-06_15h05.00.842,lm,2020.2.8,Win32,60,,,2,17,59,9,1
,,e,8.80043,,,,,,images/3.png,3,denicole,001,2020-12-06_15h05.00.842,lm,2020.2.8,Win32,60,,,2,18,60,13,1
,,o,3.09429,,,,,,images/1.png,1,denicole,001,2020-12-06_15h05.00.842,lm,2020.2.8,Win32,60,,,2,19,61,11,1
,,e,2.63146,,,,,,images/-8.png,-8,denicole,001,2020-12-06_15h05.00.842,lm,2020.2.8,Win32,60,,,2,20,62,2,1
,,o,2.634915,,,,,,images/9.png,9,denicole,001,2020-12-06_15h05.00.842,lm,2020.2.8,Win32,60,,,3,0,63,19,1
,,e,4.853275,,,,,,images/-1.png,-1,denicole,001,2020-12-06_15h05.00.842,lm,2020.2.8,Win32,60,,,3,1,64,9,1
,,e,6.488165,,,,,,images/-7.png,-7,denicole,001,2020-12-06_15h05.00.842,lm,2020.2.8,Win32,60,,,3,2,65,3,1
,,o,2.8973,,,,,,images/3.png,3,denicole,001,2020-12-06_15h05.00.842,lm,2020.2.8,Win32,60,,,3,3,66,13,1
,,o,2.67618,,,,,,images/5.png,5,denicole,001,2020-12-06_15h05.00.842,lm,2020.2.8,Win32,60,,,3,4,67,15,1
,,e,4.16566,,,,,,images/-6.png,-6,denicole,001,2020-12-06_15h05.00.842,lm,2020.2.8,Win32,60,,,3,5,68,4,1
,,e,2.67103,,,,,,images/-8.png,-8,denicole,001,2020-12-06_15h05.00.842,lm,2020.2.8,Win32,60,,,3,6,69,2,1
,,o,2.168925,,,,,,images/2.png,2,denicole,001,2020-12-06_15h05.00.842,lm,2020.2.8,Win32,60,,,3,7,70,12,1
,,e,2.10697,,,,,,images/-9.png,-9,denicole,001,2020-12-06_15h05.00.842,lm,2020.2.8,Win32,60,,,3,8,71,1,1
,,o,2.414805,,,,,,images/0.png,0,denicole,001,2020-12-06_15h05.00.842,lm,2020.2.8,Win32,60,,,3,9,72,10,1
,,o,2.28647,,,,,,images/8.png,8,denicole,001,2020-12-06_15h05.00.842,lm,2020.2.8,Win32,60,,,3,10,73,18,1
,,e,2.323865,,,,,,images/-5.png,-5,denicole,001,2020-12-06_15h05.00.842,lm,2020.2.8,Win32,60,,,3,11,74,5,1
,,e,2.2341,,,,,,images/-10.png,-10,denicole,001,2020-12-06_15h05.00.842,lm,2020.2.8,Win32,60,,,3,12,75,0,1
,,o,2.900835,,,,,,images/4.png,4,denicole,001,2020-12-06_15h05.00.842,lm,2020.2.8,Win32,60,,,3,13,76,14,1
,,o,3.096895,,,,,,images/1.png,1,denicole,001,2020-12-06_15h05.00.842,lm,2020.2.8,Win32,60,,,3,14,77,11,1
,,e,4.08716,,,,,,images/-2.png,-2,denicole,001,2020-12-06_15h05.00.842,lm,2020.2.8,Win32,60,,,3,15,78,8,1
,,o,1.835635,,,,,,images/7.png,7,denicole,001,2020-12-06_15h05.00.842,lm,2020.2.8,Win32,60,,,3,16,79,17,1
,,o,2.070405,,,,,,images/6.png,6,denicole,001,2020-12-06_15h05.00.842,lm,2020.2.8,Win32,60,,,3,17,80,16,1
,,e,1.941005,,,,,,images/-4.png,-4,denicole,001,2020-12-06_15h05.00.842,lm,2020.2.8,Win32,60,,,3,18,81,6,1
,,e,2.935335,,,,,,images/-3.png,-3,denicole,001,2020-12-06_15h05.00.842,lm,2020.2.8,Win32,60,,,3,19,82,7,1
,,o,2.35513,,,,,,images/10.png,10,denicole,001,2020-12-06_15h05.00.842,lm,2020.2.8,Win32,60,,,3,20,83,20,1
