resp_txt.keys,resp_txt.rt,resp.keys,resp.rt,trials_training.thisRepN,trials_training.thisTrialN,trials_training.thisN,trials_training.thisIndex,trials_training.ran,line_file,offset,participant,session,date,expName,psychopyVersion,OS,frameRate,key_resp_after_training.keys,key_resp_after_training.rt,trials.thisRepN,trials.thisTrialN,trials.thisN,trials.thisIndex,trials.ran
space,6.116,o,0.434,0,0,0,14,1,images/4.png,4,remi2,001,2020-12-07_18h45.17.859,lm,2020.2.8,Win32,60,,,,,,,
,,e,0.701,0,1,1,0,1,images/-10.png,-10,remi2,001,2020-12-07_18h45.17.859,lm,2020.2.8,Win32,60,,,,,,,
,,o,2.275,0,2,2,12,1,images/2.png,2,remi2,001,2020-12-07_18h45.17.859,lm,2020.2.8,Win32,60,,,,,,,
,,o,0.424,0,3,3,19,1,images/9.png,9,remi2,001,2020-12-07_18h45.17.859,lm,2020.2.8,Win32,60,,,,,,,
,,e,0.473,0,4,4,2,1,images/-8.png,-8,remi2,001,2020-12-07_18h45.17.859,lm,2020.2.8,Win32,60,,,,,,,
,,o,0.352,0,5,5,20,1,images/10.png,10,remi2,001,2020-12-07_18h45.17.859,lm,2020.2.8,Win32,60,,,,,,,
,,o,0.451,0,6,6,18,1,images/8.png,8,remi2,001,2020-12-07_18h45.17.859,lm,2020.2.8,Win32,60,,,,,,,
,,o,0.65,0,7,7,17,1,images/7.png,7,remi2,001,2020-12-07_18h45.17.859,lm,2020.2.8,Win32,60,,,,,,,
,,e,0.968,0,8,8,11,1,images/1.png,1,remi2,001,2020-12-07_18h45.17.859,lm,2020.2.8,Win32,60,,,,,,,
,,e,0.42,0,9,9,4,1,images/-6.png,-6,remi2,001,2020-12-07_18h45.17.859,lm,2020.2.8,Win32,60,,,,,,,
,,o,1.054,0,10,10,8,1,images/-2.png,-2,remi2,001,2020-12-07_18h45.17.859,lm,2020.2.8,Win32,60,,,,,,,
,,o,0.421,0,11,11,15,1,images/5.png,5,remi2,001,2020-12-07_18h45.17.859,lm,2020.2.8,Win32,60,,,,,,,
,,e,0.39,0,12,12,5,1,images/-5.png,-5,remi2,001,2020-12-07_18h45.17.859,lm,2020.2.8,Win32,60,,,,,,,
,,o,1.185,0,13,13,13,1,images/3.png,3,remi2,001,2020-12-07_18h45.17.859,lm,2020.2.8,Win32,60,,,,,,,
,,o,2.018,0,14,14,7,1,images/-3.png,-3,remi2,001,2020-12-07_18h45.17.859,lm,2020.2.8,Win32,60,,,,,,,
,,o,0.367,0,15,15,10,1,images/0.png,0,remi2,001,2020-12-07_18h45.17.859,lm,2020.2.8,Win32,60,,,,,,,
,,e,1.2,0,16,16,6,1,images/-4.png,-4,remi2,001,2020-12-07_18h45.17.859,lm,2020.2.8,Win32,60,,,,,,,
,,e,0.4,0,17,17,3,1,images/-7.png,-7,remi2,001,2020-12-07_18h45.17.859,lm,2020.2.8,Win32,60,,,,,,,
,,e,0.336,0,18,18,1,1,images/-9.png,-9,remi2,001,2020-12-07_18h45.17.859,lm,2020.2.8,Win32,60,,,,,,,
,,o,0.389,0,19,19,16,1,images/6.png,6,remi2,001,2020-12-07_18h45.17.859,lm,2020.2.8,Win32,60,,,,,,,
,,o,1.222,0,20,20,9,1,images/-1.png,-1,remi2,001,2020-12-07_18h45.17.859,lm,2020.2.8,Win32,60,,,,,,,
,,o,0.358,,,,,,images/5.png,5,remi2,001,2020-12-07_18h45.17.859,lm,2020.2.8,Win32,60,space,2.141,0,0,0,15,1
,,o,0.334,,,,,,images/6.png,6,remi2,001,2020-12-07_18h45.17.859,lm,2020.2.8,Win32,60,,,0,1,1,16,1
,,o,0.303,,,,,,images/7.png,7,remi2,001,2020-12-07_18h45.17.859,lm,2020.2.8,Win32,60,,,0,2,2,17,1
,,o,0.301,,,,,,images/9.png,9,remi2,001,2020-12-07_18h45.17.859,lm,2020.2.8,Win32,60,,,0,3,3,19,1
,,o,0.885,,,,,,images/2.png,2,remi2,001,2020-12-07_18h45.17.859,lm,2020.2.8,Win32,60,,,0,4,4,12,1
,,o,0.556,,,,,,images/4.png,4,remi2,001,2020-12-07_18h45.17.859,lm,2020.2.8,Win32,60,,,0,5,5,14,1
,,o,0.553,,,,,,images/-2.png,-2,remi2,001,2020-12-07_18h45.17.859,lm,2020.2.8,Win32,60,,,0,6,6,8,1
,,o,0.291,,,,,,images/10.png,10,remi2,001,2020-12-07_18h45.17.859,lm,2020.2.8,Win32,60,,,0,7,7,20,1
,,o,0.218,,,,,,images/8.png,8,remi2,001,2020-12-07_18h45.17.859,lm,2020.2.8,Win32,60,,,0,8,8,18,1
,,o,0.853,,,,,,images/0.png,0,remi2,001,2020-12-07_18h45.17.859,lm,2020.2.8,Win32,60,,,0,9,9,10,1
,,e,0.436,,,,,,images/-8.png,-8,remi2,001,2020-12-07_18h45.17.859,lm,2020.2.8,Win32,60,,,0,10,10,2,1
,,o,0.818,,,,,,images/-1.png,-1,remi2,001,2020-12-07_18h45.17.859,lm,2020.2.8,Win32,60,,,0,11,11,9,1
,,e,0.72,,,,,,images/-3.png,-3,remi2,001,2020-12-07_18h45.17.859,lm,2020.2.8,Win32,60,,,0,12,12,7,1
,,e,0.319,,,,,,images/-4.png,-4,remi2,001,2020-12-07_18h45.17.859,lm,2020.2.8,Win32,60,,,0,13,13,6,1
,,e,0.268,,,,,,images/-10.png,-10,remi2,001,2020-12-07_18h45.17.859,lm,2020.2.8,Win32,60,,,0,14,14,0,1
,,e,0.284,,,,,,images/-7.png,-7,remi2,001,2020-12-07_18h45.17.859,lm,2020.2.8,Win32,60,,,0,15,15,3,1
,,o,0.491,,,,,,images/3.png,3,remi2,001,2020-12-07_18h45.17.859,lm,2020.2.8,Win32,60,,,0,16,16,13,1
,,o,0.668,,,,,,images/1.png,1,remi2,001,2020-12-07_18h45.17.859,lm,2020.2.8,Win32,60,,,0,17,17,11,1
,,e,1.791,,,,,,images/-6.png,-6,remi2,001,2020-12-07_18h45.17.859,lm,2020.2.8,Win32,60,,,0,18,18,4,1
,,e,0.269,,,,,,images/-9.png,-9,remi2,001,2020-12-07_18h45.17.859,lm,2020.2.8,Win32,60,,,0,19,19,1,1
,,e,0.486,,,,,,images/-5.png,-5,remi2,001,2020-12-07_18h45.17.859,lm,2020.2.8,Win32,60,,,0,20,20,5,1
,,o,0.502,,,,,,images/1.png,1,remi2,001,2020-12-07_18h45.17.859,lm,2020.2.8,Win32,60,,,1,0,21,11,1
,,o,0.236,,,,,,images/7.png,7,remi2,001,2020-12-07_18h45.17.859,lm,2020.2.8,Win32,60,,,1,1,22,17,1
,,o,0.285,,,,,,images/9.png,9,remi2,001,2020-12-07_18h45.17.859,lm,2020.2.8,Win32,60,,,1,2,23,19,1
,,e,1.268,,,,,,images/-1.png,-1,remi2,001,2020-12-07_18h45.17.859,lm,2020.2.8,Win32,60,,,1,3,24,9,1
,,o,0.35,,,,,,images/10.png,10,remi2,001,2020-12-07_18h45.17.859,lm,2020.2.8,Win32,60,,,1,4,25,20,1
,,e,0.85,,,,,,images/-7.png,-7,remi2,001,2020-12-07_18h45.17.859,lm,2020.2.8,Win32,60,,,1,5,26,3,1
,,o,1.088,,,,,,images/2.png,2,remi2,001,2020-12-07_18h45.17.859,lm,2020.2.8,Win32,60,,,1,6,27,12,1
,,o,0.335,,,,,,images/5.png,5,remi2,001,2020-12-07_18h45.17.859,lm,2020.2.8,Win32,60,,,1,7,28,15,1
,,o,1.306,,,,,,images/-2.png,-2,remi2,001,2020-12-07_18h45.17.859,lm,2020.2.8,Win32,60,,,1,8,29,8,1
,,o,1.559,,,,,,images/-4.png,-4,remi2,001,2020-12-07_18h45.17.859,lm,2020.2.8,Win32,60,,,1,9,30,6,1
,,e,0.419,,,,,,images/-10.png,-10,remi2,001,2020-12-07_18h45.17.859,lm,2020.2.8,Win32,60,,,1,10,31,0,1
,,o,0.284,,,,,,images/6.png,6,remi2,001,2020-12-07_18h45.17.859,lm,2020.2.8,Win32,60,,,1,11,32,16,1
,,e,0.419,,,,,,images/-9.png,-9,remi2,001,2020-12-07_18h45.17.859,lm,2020.2.8,Win32,60,,,1,12,33,1,1
,,o,1.09,,,,,,images/0.png,0,remi2,001,2020-12-07_18h45.17.859,lm,2020.2.8,Win32,60,,,1,13,34,10,1
,,o,0.319,,,,,,images/8.png,8,remi2,001,2020-12-07_18h45.17.859,lm,2020.2.8,Win32,60,,,1,14,35,18,1
,,o,0.656,,,,,,images/-3.png,-3,remi2,001,2020-12-07_18h45.17.859,lm,2020.2.8,Win32,60,,,1,15,36,7,1
,,e,0.505,,,,,,images/-5.png,-5,remi2,001,2020-12-07_18h45.17.859,lm,2020.2.8,Win32,60,,,1,16,37,5,1
,,o,1.286,,,,,,images/3.png,3,remi2,001,2020-12-07_18h45.17.859,lm,2020.2.8,Win32,60,,,1,17,38,13,1
,,e,0.52,,,,,,images/-8.png,-8,remi2,001,2020-12-07_18h45.17.859,lm,2020.2.8,Win32,60,,,1,18,39,2,1
,,o,0.369,,,,,,images/4.png,4,remi2,001,2020-12-07_18h45.17.859,lm,2020.2.8,Win32,60,,,1,19,40,14,1
,,e,2.086,,,,,,images/-6.png,-6,remi2,001,2020-12-07_18h45.17.859,lm,2020.2.8,Win32,60,,,1,20,41,4,1
,,e,1.219,,,,,,images/-4.png,-4,remi2,001,2020-12-07_18h45.17.859,lm,2020.2.8,Win32,60,,,2,0,42,6,1
,,o,0.37,,,,,,images/9.png,9,remi2,001,2020-12-07_18h45.17.859,lm,2020.2.8,Win32,60,,,2,1,43,19,1
,,e,0.374,,,,,,images/-9.png,-9,remi2,001,2020-12-07_18h45.17.859,lm,2020.2.8,Win32,60,,,2,2,44,1,1
,,o,0.352,,,,,,images/6.png,6,remi2,001,2020-12-07_18h45.17.859,lm,2020.2.8,Win32,60,,,2,3,45,16,1
,,o,1.041,,,,,,images/-2.png,-2,remi2,001,2020-12-07_18h45.17.859,lm,2020.2.8,Win32,60,,,2,4,46,8,1
,,o,0.325,,,,,,images/4.png,4,remi2,001,2020-12-07_18h45.17.859,lm,2020.2.8,Win32,60,,,2,5,47,14,1
,,e,0.906,,,,,,images/-5.png,-5,remi2,001,2020-12-07_18h45.17.859,lm,2020.2.8,Win32,60,,,2,6,48,5,1
,,e,0.401,,,,,,images/-10.png,-10,remi2,001,2020-12-07_18h45.17.859,lm,2020.2.8,Win32,60,,,2,7,49,0,1
,,e,0.436,,,,,,images/-6.png,-6,remi2,001,2020-12-07_18h45.17.859,lm,2020.2.8,Win32,60,,,2,8,50,4,1
,,o,0.401,,,,,,images/7.png,7,remi2,001,2020-12-07_18h45.17.859,lm,2020.2.8,Win32,60,,,2,9,51,17,1
,,e,1.356,,,,,,images/-7.png,-7,remi2,001,2020-12-07_18h45.17.859,lm,2020.2.8,Win32,60,,,2,10,52,3,1
,,e,1.388,,,,,,images/-3.png,-3,remi2,001,2020-12-07_18h45.17.859,lm,2020.2.8,Win32,60,,,2,11,53,7,1
,,o,0.436,,,,,,images/5.png,5,remi2,001,2020-12-07_18h45.17.859,lm,2020.2.8,Win32,60,,,2,12,54,15,1
,,o,1.185,,,,,,images/-1.png,-1,remi2,001,2020-12-07_18h45.17.859,lm,2020.2.8,Win32,60,,,2,13,55,9,1
,,o,1.474,,,,,,images/1.png,1,remi2,001,2020-12-07_18h45.17.859,lm,2020.2.8,Win32,60,,,2,14,56,11,1
,,o,0.536,,,,,,images/2.png,2,remi2,001,2020-12-07_18h45.17.859,lm,2020.2.8,Win32,60,,,2,15,57,12,1
,,o,0.342,,,,,,images/3.png,3,remi2,001,2020-12-07_18h45.17.859,lm,2020.2.8,Win32,60,,,2,16,58,13,1
,,e,0.488,,,,,,images/-8.png,-8,remi2,001,2020-12-07_18h45.17.859,lm,2020.2.8,Win32,60,,,2,17,59,2,1
,,o,0.62,,,,,,images/8.png,8,remi2,001,2020-12-07_18h45.17.859,lm,2020.2.8,Win32,60,,,2,18,60,18,1
,,o,0.639,,,,,,images/0.png,0,remi2,001,2020-12-07_18h45.17.859,lm,2020.2.8,Win32,60,,,2,19,61,10,1
,,o,0.473,,,,,,images/10.png,10,remi2,001,2020-12-07_18h45.17.859,lm,2020.2.8,Win32,60,,,2,20,62,20,1
,,o,0.986,,,,,,images/-2.png,-2,remi2,001,2020-12-07_18h45.17.859,lm,2020.2.8,Win32,60,,,3,0,63,8,1
,,e,0.985,,,,,,images/-10.png,-10,remi2,001,2020-12-07_18h45.17.859,lm,2020.2.8,Win32,60,,,3,1,64,0,1
,,o,0.417,,,,,,images/3.png,3,remi2,001,2020-12-07_18h45.17.859,lm,2020.2.8,Win32,60,,,3,2,65,13,1
,,e,0.868,,,,,,images/-7.png,-7,remi2,001,2020-12-07_18h45.17.859,lm,2020.2.8,Win32,60,,,3,3,66,3,1
,,o,0.475,,,,,,images/4.png,4,remi2,001,2020-12-07_18h45.17.859,lm,2020.2.8,Win32,60,,,3,4,67,14,1
,,o,0.718,,,,,,images/0.png,0,remi2,001,2020-12-07_18h45.17.859,lm,2020.2.8,Win32,60,,,3,5,68,10,1
,,o,0.301,,,,,,images/8.png,8,remi2,001,2020-12-07_18h45.17.859,lm,2020.2.8,Win32,60,,,3,6,69,18,1
,,o,0.357,,,,,,images/5.png,5,remi2,001,2020-12-07_18h45.17.859,lm,2020.2.8,Win32,60,,,3,7,70,15,1
,,e,2.236,,,,,,images/-4.png,-4,remi2,001,2020-12-07_18h45.17.859,lm,2020.2.8,Win32,60,,,3,8,71,6,1
,,o,0.819,,,,,,images/-3.png,-3,remi2,001,2020-12-07_18h45.17.859,lm,2020.2.8,Win32,60,,,3,9,72,7,1
,,e,0.609,,,,,,images/-9.png,-9,remi2,001,2020-12-07_18h45.17.859,lm,2020.2.8,Win32,60,,,3,10,73,1,1
,,o,0.489,,,,,,images/2.png,2,remi2,001,2020-12-07_18h45.17.859,lm,2020.2.8,Win32,60,,,3,11,74,12,1
,,o,0.521,,,,,,images/1.png,1,remi2,001,2020-12-07_18h45.17.859,lm,2020.2.8,Win32,60,,,3,12,75,11,1
,,o,0.39,,,,,,images/9.png,9,remi2,001,2020-12-07_18h45.17.859,lm,2020.2.8,Win32,60,,,3,13,76,19,1
,,e,0.471,,,,,,images/-6.png,-6,remi2,001,2020-12-07_18h45.17.859,lm,2020.2.8,Win32,60,,,3,14,77,4,1
,,o,0.65,,,,,,images/6.png,6,remi2,001,2020-12-07_18h45.17.859,lm,2020.2.8,Win32,60,,,3,15,78,16,1
,,o,0.288,,,,,,images/10.png,10,remi2,001,2020-12-07_18h45.17.859,lm,2020.2.8,Win32,60,,,3,16,79,20,1
,,o,0.235,,,,,,images/7.png,7,remi2,001,2020-12-07_18h45.17.859,lm,2020.2.8,Win32,60,,,3,17,80,17,1
,,e,0.468,,,,,,images/-8.png,-8,remi2,001,2020-12-07_18h45.17.859,lm,2020.2.8,Win32,60,,,3,18,81,2,1
,,o,1.936,,,,,,images/-1.png,-1,remi2,001,2020-12-07_18h45.17.859,lm,2020.2.8,Win32,60,,,3,19,82,9,1
,,e,2.103,,,,,,images/-5.png,-5,remi2,001,2020-12-07_18h45.17.859,lm,2020.2.8,Win32,60,,,3,20,83,5,1
