resp_txt.keys,resp_txt.rt,resp.keys,resp.rt,trials_training.thisRepN,trials_training.thisTrialN,trials_training.thisN,trials_training.thisIndex,trials_training.ran,line_file,offset,participant,session,date,expName,psychopyVersion,OS,frameRate,key_resp_after_training.keys,key_resp_after_training.rt,trials.thisRepN,trials.thisTrialN,trials.thisN,trials.thisIndex,trials.ran
space,3.44941,e,1.540385,0,0,0,2,1,images/-8.png,-8,André Lafitte,001,2020-12-07_20h35.19.652,lm,2020.2.8,Win32,60,,,,,,,
,,e,0.33471,0,1,1,5,1,images/-5.png,-5,André Lafitte,001,2020-12-07_20h35.19.652,lm,2020.2.8,Win32,60,,,,,,,
,,o,0.69662,0,2,2,19,1,images/9.png,9,André Lafitte,001,2020-12-07_20h35.19.652,lm,2020.2.8,Win32,60,,,,,,,
,,o,0.53655,0,3,3,11,1,images/1.png,1,André Lafitte,001,2020-12-07_20h35.19.652,lm,2020.2.8,Win32,60,,,,,,,
,,e,0.434455,0,4,4,7,1,images/-3.png,-3,André Lafitte,001,2020-12-07_20h35.19.652,lm,2020.2.8,Win32,60,,,,,,,
,,e,0.5926,0,5,5,16,1,images/6.png,6,André Lafitte,001,2020-12-07_20h35.19.652,lm,2020.2.8,Win32,60,,,,,,,
,,e,0.394415,0,6,6,1,1,images/-9.png,-9,André Lafitte,001,2020-12-07_20h35.19.652,lm,2020.2.8,Win32,60,,,,,,,
,,e,0.29159,0,7,7,0,1,images/-10.png,-10,André Lafitte,001,2020-12-07_20h35.19.652,lm,2020.2.8,Win32,60,,,,,,,
,,e,0.229285,0,8,8,3,1,images/-7.png,-7,André Lafitte,001,2020-12-07_20h35.19.652,lm,2020.2.8,Win32,60,,,,,,,
,,o,0.31195,0,9,9,20,1,images/10.png,10,André Lafitte,001,2020-12-07_20h35.19.652,lm,2020.2.8,Win32,60,,,,,,,
,,o,0.585895,0,10,10,14,1,images/4.png,4,André Lafitte,001,2020-12-07_20h35.19.652,lm,2020.2.8,Win32,60,,,,,,,
,,e,0.330815,0,11,11,8,1,images/-2.png,-2,André Lafitte,001,2020-12-07_20h35.19.652,lm,2020.2.8,Win32,60,,,,,,,
,,o,0.34916,0,12,12,15,1,images/5.png,5,André Lafitte,001,2020-12-07_20h35.19.652,lm,2020.2.8,Win32,60,,,,,,,
,,e,0.35079,0,13,13,9,1,images/-1.png,-1,André Lafitte,001,2020-12-07_20h35.19.652,lm,2020.2.8,Win32,60,,,,,,,
,,o,0.969405,0,14,14,13,1,images/3.png,3,André Lafitte,001,2020-12-07_20h35.19.652,lm,2020.2.8,Win32,60,,,,,,,
,,o,1.465665,0,15,15,12,1,images/2.png,2,André Lafitte,001,2020-12-07_20h35.19.652,lm,2020.2.8,Win32,60,,,,,,,
,,e,0.233605,0,16,16,10,1,images/0.png,0,André Lafitte,001,2020-12-07_20h35.19.652,lm,2020.2.8,Win32,60,,,,,,,
,,e,0.09892,0,17,17,6,1,images/-4.png,-4,André Lafitte,001,2020-12-07_20h35.19.652,lm,2020.2.8,Win32,60,,,,,,,
,,o,0.49756,0,18,18,18,1,images/8.png,8,André Lafitte,001,2020-12-07_20h35.19.652,lm,2020.2.8,Win32,60,,,,,,,
,,e,0.36635,0,19,19,4,1,images/-6.png,-6,André Lafitte,001,2020-12-07_20h35.19.652,lm,2020.2.8,Win32,60,,,,,,,
,,o,0.437475,0,20,20,17,1,images/7.png,7,André Lafitte,001,2020-12-07_20h35.19.652,lm,2020.2.8,Win32,60,,,,,,,
,,e,1.217595,,,,,,images/-1.png,-1,André Lafitte,001,2020-12-07_20h35.19.652,lm,2020.2.8,Win32,60,space,0.68286,0,0,0,9,1
,,e,0.26023,,,,,,images/-10.png,-10,André Lafitte,001,2020-12-07_20h35.19.652,lm,2020.2.8,Win32,60,,,0,1,1,0,1
,,o,1.28411,,,,,,images/5.png,5,André Lafitte,001,2020-12-07_20h35.19.652,lm,2020.2.8,Win32,60,,,0,2,2,15,1
,,e,0.301405,,,,,,images/-8.png,-8,André Lafitte,001,2020-12-07_20h35.19.652,lm,2020.2.8,Win32,60,,,0,3,3,2,1
,,o,0.5123,,,,,,images/9.png,9,André Lafitte,001,2020-12-07_20h35.19.652,lm,2020.2.8,Win32,60,,,0,4,4,19,1
,,e,1.4122,,,,,,images/2.png,2,André Lafitte,001,2020-12-07_20h35.19.652,lm,2020.2.8,Win32,60,,,0,5,5,12,1
,,e,0.366845,,,,,,images/-5.png,-5,André Lafitte,001,2020-12-07_20h35.19.652,lm,2020.2.8,Win32,60,,,0,6,6,5,1
,,e,0.2392,,,,,,images/-6.png,-6,André Lafitte,001,2020-12-07_20h35.19.652,lm,2020.2.8,Win32,60,,,0,7,7,4,1
,,e,0.23876,,,,,,images/-7.png,-7,André Lafitte,001,2020-12-07_20h35.19.652,lm,2020.2.8,Win32,60,,,0,8,8,3,1
,,o,0.38469,,,,,,images/10.png,10,André Lafitte,001,2020-12-07_20h35.19.652,lm,2020.2.8,Win32,60,,,0,9,9,20,1
,,e,0.617505,,,,,,images/-9.png,-9,André Lafitte,001,2020-12-07_20h35.19.652,lm,2020.2.8,Win32,60,,,0,10,10,1,1
,,o,0.441015,,,,,,images/7.png,7,André Lafitte,001,2020-12-07_20h35.19.652,lm,2020.2.8,Win32,60,,,0,11,11,17,1
,,e,0.834455,,,,,,images/-2.png,-2,André Lafitte,001,2020-12-07_20h35.19.652,lm,2020.2.8,Win32,60,,,0,12,12,8,1
,,e,0.484085,,,,,,images/1.png,1,André Lafitte,001,2020-12-07_20h35.19.652,lm,2020.2.8,Win32,60,,,0,13,13,11,1
,,e,0.433455,,,,,,images/0.png,0,André Lafitte,001,2020-12-07_20h35.19.652,lm,2020.2.8,Win32,60,,,0,14,14,10,1
,,e,0.30005,,,,,,images/-3.png,-3,André Lafitte,001,2020-12-07_20h35.19.652,lm,2020.2.8,Win32,60,,,0,15,15,7,1
,,o,0.465095,,,,,,images/6.png,6,André Lafitte,001,2020-12-07_20h35.19.652,lm,2020.2.8,Win32,60,,,0,16,16,16,1
,,e,0.42018,,,,,,images/-4.png,-4,André Lafitte,001,2020-12-07_20h35.19.652,lm,2020.2.8,Win32,60,,,0,17,17,6,1
,,o,1.02886,,,,,,images/4.png,4,André Lafitte,001,2020-12-07_20h35.19.652,lm,2020.2.8,Win32,60,,,0,18,18,14,1
,,o,1.60176,,,,,,images/8.png,8,André Lafitte,001,2020-12-07_20h35.19.652,lm,2020.2.8,Win32,60,,,0,19,19,18,1
,,o,1.03428,,,,,,images/3.png,3,André Lafitte,001,2020-12-07_20h35.19.652,lm,2020.2.8,Win32,60,,,0,20,20,13,1
,,e,0.42311,,,,,,images/-4.png,-4,André Lafitte,001,2020-12-07_20h35.19.652,lm,2020.2.8,Win32,60,,,1,0,21,6,1
,,e,0.23532,,,,,,images/-9.png,-9,André Lafitte,001,2020-12-07_20h35.19.652,lm,2020.2.8,Win32,60,,,1,1,22,1,1
,,e,0.172755,,,,,,images/0.png,0,André Lafitte,001,2020-12-07_20h35.19.652,lm,2020.2.8,Win32,60,,,1,2,23,10,1
,,e,0.24983,,,,,,images/-10.png,-10,André Lafitte,001,2020-12-07_20h35.19.652,lm,2020.2.8,Win32,60,,,1,3,24,0,1
,,o,1.36783,,,,,,images/10.png,10,André Lafitte,001,2020-12-07_20h35.19.652,lm,2020.2.8,Win32,60,,,1,4,25,20,1
,,e,1.716385,,,,,,images/2.png,2,André Lafitte,001,2020-12-07_20h35.19.652,lm,2020.2.8,Win32,60,,,1,5,26,12,1
,,e,0.20212,,,,,,images/-3.png,-3,André Lafitte,001,2020-12-07_20h35.19.652,lm,2020.2.8,Win32,60,,,1,6,27,7,1
,,e,0.2854,,,,,,images/-5.png,-5,André Lafitte,001,2020-12-07_20h35.19.652,lm,2020.2.8,Win32,60,,,1,7,28,5,1
,,o,0.365925,,,,,,images/6.png,6,André Lafitte,001,2020-12-07_20h35.19.652,lm,2020.2.8,Win32,60,,,1,8,29,16,1
,,e,1.517525,,,,,,images/-1.png,-1,André Lafitte,001,2020-12-07_20h35.19.652,lm,2020.2.8,Win32,60,,,1,9,30,9,1
,,e,0.267935,,,,,,images/-8.png,-8,André Lafitte,001,2020-12-07_20h35.19.652,lm,2020.2.8,Win32,60,,,1,10,31,2,1
,,o,0.472055,,,,,,images/9.png,9,André Lafitte,001,2020-12-07_20h35.19.652,lm,2020.2.8,Win32,60,,,1,11,32,19,1
,,o,0.500275,,,,,,images/4.png,4,André Lafitte,001,2020-12-07_20h35.19.652,lm,2020.2.8,Win32,60,,,1,12,33,14,1
,,o,0.520105,,,,,,images/3.png,3,André Lafitte,001,2020-12-07_20h35.19.652,lm,2020.2.8,Win32,60,,,1,13,34,13,1
,,o,0.41771,,,,,,images/5.png,5,André Lafitte,001,2020-12-07_20h35.19.652,lm,2020.2.8,Win32,60,,,1,14,35,15,1
,,o,0.33536,,,,,,images/8.png,8,André Lafitte,001,2020-12-07_20h35.19.652,lm,2020.2.8,Win32,60,,,1,15,36,18,1
,,o,0.367065,,,,,,images/7.png,7,André Lafitte,001,2020-12-07_20h35.19.652,lm,2020.2.8,Win32,60,,,1,16,37,17,1
,,o,1.14508,,,,,,images/-2.png,-2,André Lafitte,001,2020-12-07_20h35.19.652,lm,2020.2.8,Win32,60,,,1,17,38,8,1
,,e,0.334405,,,,,,images/-7.png,-7,André Lafitte,001,2020-12-07_20h35.19.652,lm,2020.2.8,Win32,60,,,1,18,39,3,1
,,e,0.28464,,,,,,images/-6.png,-6,André Lafitte,001,2020-12-07_20h35.19.652,lm,2020.2.8,Win32,60,,,1,19,40,4,1
,,e,1.475445,,,,,,images/1.png,1,André Lafitte,001,2020-12-07_20h35.19.652,lm,2020.2.8,Win32,60,,,1,20,41,11,1
,,e,0.185945,,,,,,images/-4.png,-4,André Lafitte,001,2020-12-07_20h35.19.652,lm,2020.2.8,Win32,60,,,2,0,42,6,1
,,e,0.268445,,,,,,images/-6.png,-6,André Lafitte,001,2020-12-07_20h35.19.652,lm,2020.2.8,Win32,60,,,2,1,43,4,1
,,o,1.503575,,,,,,images/7.png,7,André Lafitte,001,2020-12-07_20h35.19.652,lm,2020.2.8,Win32,60,,,2,2,44,17,1
,,o,0.59992,,,,,,images/9.png,9,André Lafitte,001,2020-12-07_20h35.19.652,lm,2020.2.8,Win32,60,,,2,3,45,19,1
,,o,1.50179,,,,,,images/0.png,0,André Lafitte,001,2020-12-07_20h35.19.652,lm,2020.2.8,Win32,60,,,2,4,46,10,1
,,e,1.59481,,,,,,images/2.png,2,André Lafitte,001,2020-12-07_20h35.19.652,lm,2020.2.8,Win32,60,,,2,5,47,12,1
,,e,0.295615,,,,,,images/-2.png,-2,André Lafitte,001,2020-12-07_20h35.19.652,lm,2020.2.8,Win32,60,,,2,6,48,8,1
,,e,1.317905,,,,,,images/1.png,1,André Lafitte,001,2020-12-07_20h35.19.652,lm,2020.2.8,Win32,60,,,2,7,49,11,1
,,e,1.150785,,,,,,images/4.png,4,André Lafitte,001,2020-12-07_20h35.19.652,lm,2020.2.8,Win32,60,,,2,8,50,14,1
,,o,1.60012,,,,,,images/3.png,3,André Lafitte,001,2020-12-07_20h35.19.652,lm,2020.2.8,Win32,60,,,2,9,51,13,1
,,o,0.302245,,,,,,images/6.png,6,André Lafitte,001,2020-12-07_20h35.19.652,lm,2020.2.8,Win32,60,,,2,10,52,16,1
,,e,0.533265,,,,,,images/-5.png,-5,André Lafitte,001,2020-12-07_20h35.19.652,lm,2020.2.8,Win32,60,,,2,11,53,5,1
,,o,1.18467,,,,,,images/8.png,8,André Lafitte,001,2020-12-07_20h35.19.652,lm,2020.2.8,Win32,60,,,2,12,54,18,1
,,e,0.3533,,,,,,images/-7.png,-7,André Lafitte,001,2020-12-07_20h35.19.652,lm,2020.2.8,Win32,60,,,2,13,55,3,1
,,e,0.21709,,,,,,images/-9.png,-9,André Lafitte,001,2020-12-07_20h35.19.652,lm,2020.2.8,Win32,60,,,2,14,56,1,1
,,e,0.530195,,,,,,images/-1.png,-1,André Lafitte,001,2020-12-07_20h35.19.652,lm,2020.2.8,Win32,60,,,2,15,57,9,1
,,e,0.380115,,,,,,images/-3.png,-3,André Lafitte,001,2020-12-07_20h35.19.652,lm,2020.2.8,Win32,60,,,2,16,58,7,1
,,e,0.27262,,,,,,images/-10.png,-10,André Lafitte,001,2020-12-07_20h35.19.652,lm,2020.2.8,Win32,60,,,2,17,59,0,1
,,o,0.9084,,,,,,images/10.png,10,André Lafitte,001,2020-12-07_20h35.19.652,lm,2020.2.8,Win32,60,,,2,18,60,20,1
,,e,0.4534,,,,,,images/-8.png,-8,André Lafitte,001,2020-12-07_20h35.19.652,lm,2020.2.8,Win32,60,,,2,19,61,2,1
,,o,1.39644,,,,,,images/5.png,5,André Lafitte,001,2020-12-07_20h35.19.652,lm,2020.2.8,Win32,60,,,2,20,62,15,1
,,e,1.46228,,,,,,images/2.png,2,André Lafitte,001,2020-12-07_20h35.19.652,lm,2020.2.8,Win32,60,,,3,0,63,12,1
,,e,0.38345,,,,,,images/-4.png,-4,André Lafitte,001,2020-12-07_20h35.19.652,lm,2020.2.8,Win32,60,,,3,1,64,6,1
,,e,1.000535,,,,,,images/-3.png,-3,André Lafitte,001,2020-12-07_20h35.19.652,lm,2020.2.8,Win32,60,,,3,2,65,7,1
,,e,1.021465,,,,,,images/-5.png,-5,André Lafitte,001,2020-12-07_20h35.19.652,lm,2020.2.8,Win32,60,,,3,3,66,5,1
,,e,0.453945,,,,,,images/-9.png,-9,André Lafitte,001,2020-12-07_20h35.19.652,lm,2020.2.8,Win32,60,,,3,4,67,1,1
,,e,0.41543,,,,,,images/-8.png,-8,André Lafitte,001,2020-12-07_20h35.19.652,lm,2020.2.8,Win32,60,,,3,5,68,2,1
,,e,3.955735,,,,,,images/5.png,5,André Lafitte,001,2020-12-07_20h35.19.652,lm,2020.2.8,Win32,60,,,3,6,69,15,1
,,o,0.91727,,,,,,images/3.png,3,André Lafitte,001,2020-12-07_20h35.19.652,lm,2020.2.8,Win32,60,,,3,7,70,13,1
,,e,1.45628,,,,,,images/0.png,0,André Lafitte,001,2020-12-07_20h35.19.652,lm,2020.2.8,Win32,60,,,3,8,71,10,1
,,e,0.25044,,,,,,images/-6.png,-6,André Lafitte,001,2020-12-07_20h35.19.652,lm,2020.2.8,Win32,60,,,3,9,72,4,1
,,o,0.38558,,,,,,images/8.png,8,André Lafitte,001,2020-12-07_20h35.19.652,lm,2020.2.8,Win32,60,,,3,10,73,18,1
,,e,1.63164,,,,,,images/-1.png,-1,André Lafitte,001,2020-12-07_20h35.19.652,lm,2020.2.8,Win32,60,,,3,11,74,9,1
,,e,0.642735,,,,,,images/-2.png,-2,André Lafitte,001,2020-12-07_20h35.19.652,lm,2020.2.8,Win32,60,,,3,12,75,8,1
,,o,1.01812,,,,,,images/10.png,10,André Lafitte,001,2020-12-07_20h35.19.652,lm,2020.2.8,Win32,60,,,3,13,76,20,1
,,e,0.40619,,,,,,images/-10.png,-10,André Lafitte,001,2020-12-07_20h35.19.652,lm,2020.2.8,Win32,60,,,3,14,77,0,1
,,o,1.730855,,,,,,images/4.png,4,André Lafitte,001,2020-12-07_20h35.19.652,lm,2020.2.8,Win32,60,,,3,15,78,14,1
,,o,0.47181,,,,,,images/6.png,6,André Lafitte,001,2020-12-07_20h35.19.652,lm,2020.2.8,Win32,60,,,3,16,79,16,1
,,e,0.38934,,,,,,images/-7.png,-7,André Lafitte,001,2020-12-07_20h35.19.652,lm,2020.2.8,Win32,60,,,3,17,80,3,1
,,o,1.083145,,,,,,images/9.png,9,André Lafitte,001,2020-12-07_20h35.19.652,lm,2020.2.8,Win32,60,,,3,18,81,19,1
,,o,0.434955,,,,,,images/7.png,7,André Lafitte,001,2020-12-07_20h35.19.652,lm,2020.2.8,Win32,60,,,3,19,82,17,1
,,e,2.05119,,,,,,images/1.png,1,André Lafitte,001,2020-12-07_20h35.19.652,lm,2020.2.8,Win32,60,,,3,20,83,11,1
