resp_txt.keys,resp_txt.rt,resp.keys,resp.rt,trials_training.thisRepN,trials_training.thisTrialN,trials_training.thisN,trials_training.thisIndex,trials_training.ran,line_file,offset,participant,session,date,expName,psychopyVersion,OS,frameRate,key_resp_after_training.keys,key_resp_after_training.rt,trials.thisRepN,trials.thisTrialN,trials.thisN,trials.thisIndex,trials.ran
space,29.405315,o,2.685655,0,0,0,20,1,images/10.png,10,Manon.L,001,2020-12-07_20h42.20.820,lm,2020.2.8,Win32,60,,,,,,,
,,o,2.31907,0,1,1,16,1,images/6.png,6,Manon.L,001,2020-12-07_20h42.20.820,lm,2020.2.8,Win32,60,,,,,,,
,,e,2.169135,0,2,2,0,1,images/-10.png,-10,Manon.L,001,2020-12-07_20h42.20.820,lm,2020.2.8,Win32,60,,,,,,,
,,o,2.106115,0,3,3,15,1,images/5.png,5,Manon.L,001,2020-12-07_20h42.20.820,lm,2020.2.8,Win32,60,,,,,,,
,,o,1.467475,0,4,4,17,1,images/7.png,7,Manon.L,001,2020-12-07_20h42.20.820,lm,2020.2.8,Win32,60,,,,,,,
,,e,2.3199,0,5,5,6,1,images/-4.png,-4,Manon.L,001,2020-12-07_20h42.20.820,lm,2020.2.8,Win32,60,,,,,,,
,,e,2.220235,0,6,6,4,1,images/-6.png,-6,Manon.L,001,2020-12-07_20h42.20.820,lm,2020.2.8,Win32,60,,,,,,,
,,o,2.681175,0,7,7,7,1,images/-3.png,-3,Manon.L,001,2020-12-07_20h42.20.820,lm,2020.2.8,Win32,60,,,,,,,
,,o,1.33264,0,8,8,12,1,images/2.png,2,Manon.L,001,2020-12-07_20h42.20.820,lm,2020.2.8,Win32,60,,,,,,,
,,o,1.00258,0,9,9,8,1,images/-2.png,-2,Manon.L,001,2020-12-07_20h42.20.820,lm,2020.2.8,Win32,60,,,,,,,
,,o,1.10882,0,10,10,13,1,images/3.png,3,Manon.L,001,2020-12-07_20h42.20.820,lm,2020.2.8,Win32,60,,,,,,,
,,o,1.51265,0,11,11,11,1,images/1.png,1,Manon.L,001,2020-12-07_20h42.20.820,lm,2020.2.8,Win32,60,,,,,,,
,,e,2.669255,0,12,12,2,1,images/-8.png,-8,Manon.L,001,2020-12-07_20h42.20.820,lm,2020.2.8,Win32,60,,,,,,,
,,o,0.612435,0,13,13,18,1,images/8.png,8,Manon.L,001,2020-12-07_20h42.20.820,lm,2020.2.8,Win32,60,,,,,,,
,,e,2.756585,0,14,14,3,1,images/-7.png,-7,Manon.L,001,2020-12-07_20h42.20.820,lm,2020.2.8,Win32,60,,,,,,,
,,e,1.401745,0,15,15,5,1,images/-5.png,-5,Manon.L,001,2020-12-07_20h42.20.820,lm,2020.2.8,Win32,60,,,,,,,
,,o,1.456695,0,16,16,14,1,images/4.png,4,Manon.L,001,2020-12-07_20h42.20.820,lm,2020.2.8,Win32,60,,,,,,,
,,e,2.200845,0,17,17,9,1,images/-1.png,-1,Manon.L,001,2020-12-07_20h42.20.820,lm,2020.2.8,Win32,60,,,,,,,
,,o,2.433765,0,18,18,10,1,images/0.png,0,Manon.L,001,2020-12-07_20h42.20.820,lm,2020.2.8,Win32,60,,,,,,,
,,e,1.764735,0,19,19,1,1,images/-9.png,-9,Manon.L,001,2020-12-07_20h42.20.820,lm,2020.2.8,Win32,60,,,,,,,
,,o,1.832525,0,20,20,19,1,images/9.png,9,Manon.L,001,2020-12-07_20h42.20.820,lm,2020.2.8,Win32,60,,,,,,,
,,o,1.320865,,,,,,images/9.png,9,Manon.L,001,2020-12-07_20h42.20.820,lm,2020.2.8,Win32,60,space,4.30058,0,0,0,19,1
,,o,2.258285,,,,,,images/6.png,6,Manon.L,001,2020-12-07_20h42.20.820,lm,2020.2.8,Win32,60,,,0,1,1,16,1
,,e,1.7338,,,,,,images/-6.png,-6,Manon.L,001,2020-12-07_20h42.20.820,lm,2020.2.8,Win32,60,,,0,2,2,4,1
,,e,4.063,,,,,,images/-7.png,-7,Manon.L,001,2020-12-07_20h42.20.820,lm,2020.2.8,Win32,60,,,0,3,3,3,1
,,o,2.198595,,,,,,images/8.png,8,Manon.L,001,2020-12-07_20h42.20.820,lm,2020.2.8,Win32,60,,,0,4,4,18,1
,,o,2.188235,,,,,,images/3.png,3,Manon.L,001,2020-12-07_20h42.20.820,lm,2020.2.8,Win32,60,,,0,5,5,13,1
,,e,2.11757,,,,,,images/-1.png,-1,Manon.L,001,2020-12-07_20h42.20.820,lm,2020.2.8,Win32,60,,,0,6,6,9,1
,,o,2.402885,,,,,,images/10.png,10,Manon.L,001,2020-12-07_20h42.20.820,lm,2020.2.8,Win32,60,,,0,7,7,20,1
,,e,2.112105,,,,,,images/-10.png,-10,Manon.L,001,2020-12-07_20h42.20.820,lm,2020.2.8,Win32,60,,,0,8,8,0,1
,,e,2.482325,,,,,,images/-2.png,-2,Manon.L,001,2020-12-07_20h42.20.820,lm,2020.2.8,Win32,60,,,0,9,9,8,1
,,o,2.1746,,,,,,images/5.png,5,Manon.L,001,2020-12-07_20h42.20.820,lm,2020.2.8,Win32,60,,,0,10,10,15,1
,,e,2.282675,,,,,,images/-8.png,-8,Manon.L,001,2020-12-07_20h42.20.820,lm,2020.2.8,Win32,60,,,0,11,11,2,1
,,e,2.441695,,,,,,images/0.png,0,Manon.L,001,2020-12-07_20h42.20.820,lm,2020.2.8,Win32,60,,,0,12,12,10,1
,,e,2.11878,,,,,,images/-4.png,-4,Manon.L,001,2020-12-07_20h42.20.820,lm,2020.2.8,Win32,60,,,0,13,13,6,1
,,e,2.198015,,,,,,images/-5.png,-5,Manon.L,001,2020-12-07_20h42.20.820,lm,2020.2.8,Win32,60,,,0,14,14,5,1
,,o,2.109095,,,,,,images/2.png,2,Manon.L,001,2020-12-07_20h42.20.820,lm,2020.2.8,Win32,60,,,0,15,15,12,1
,,o,2.465565,,,,,,images/1.png,1,Manon.L,001,2020-12-07_20h42.20.820,lm,2020.2.8,Win32,60,,,0,16,16,11,1
,,o,2.081695,,,,,,images/4.png,4,Manon.L,001,2020-12-07_20h42.20.820,lm,2020.2.8,Win32,60,,,0,17,17,14,1
,,e,2.140195,,,,,,images/-3.png,-3,Manon.L,001,2020-12-07_20h42.20.820,lm,2020.2.8,Win32,60,,,0,18,18,7,1
,,o,2.16593,,,,,,images/7.png,7,Manon.L,001,2020-12-07_20h42.20.820,lm,2020.2.8,Win32,60,,,0,19,19,17,1
,,e,0.99414,,,,,,images/-9.png,-9,Manon.L,001,2020-12-07_20h42.20.820,lm,2020.2.8,Win32,60,,,0,20,20,1,1
,,e,1.401275,,,,,,images/-9.png,-9,Manon.L,001,2020-12-07_20h42.20.820,lm,2020.2.8,Win32,60,,,1,0,21,1,1
,,o,1.45449,,,,,,images/9.png,9,Manon.L,001,2020-12-07_20h42.20.820,lm,2020.2.8,Win32,60,,,1,1,22,19,1
,,o,1.173625,,,,,,images/10.png,10,Manon.L,001,2020-12-07_20h42.20.820,lm,2020.2.8,Win32,60,,,1,2,23,20,1
,,e,1.40734,,,,,,images/-10.png,-10,Manon.L,001,2020-12-07_20h42.20.820,lm,2020.2.8,Win32,60,,,1,3,24,0,1
,,o,0.95225,,,,,,images/6.png,6,Manon.L,001,2020-12-07_20h42.20.820,lm,2020.2.8,Win32,60,,,1,4,25,16,1
,,o,1.118495,,,,,,images/8.png,8,Manon.L,001,2020-12-07_20h42.20.820,lm,2020.2.8,Win32,60,,,1,5,26,18,1
,,e,1.340825,,,,,,images/-5.png,-5,Manon.L,001,2020-12-07_20h42.20.820,lm,2020.2.8,Win32,60,,,1,6,27,5,1
,,o,1.57255,,,,,,images/4.png,4,Manon.L,001,2020-12-07_20h42.20.820,lm,2020.2.8,Win32,60,,,1,7,28,14,1
,,o,2.168965,,,,,,images/0.png,0,Manon.L,001,2020-12-07_20h42.20.820,lm,2020.2.8,Win32,60,,,1,8,29,10,1
,,e,1.9742,,,,,,images/1.png,1,Manon.L,001,2020-12-07_20h42.20.820,lm,2020.2.8,Win32,60,,,1,9,30,11,1
,,e,1.53666,,,,,,images/-2.png,-2,Manon.L,001,2020-12-07_20h42.20.820,lm,2020.2.8,Win32,60,,,1,10,31,8,1
,,o,1.636595,,,,,,images/3.png,3,Manon.L,001,2020-12-07_20h42.20.820,lm,2020.2.8,Win32,60,,,1,11,32,13,1
,,o,1.392205,,,,,,images/7.png,7,Manon.L,001,2020-12-07_20h42.20.820,lm,2020.2.8,Win32,60,,,1,12,33,17,1
,,e,1.116465,,,,,,images/-7.png,-7,Manon.L,001,2020-12-07_20h42.20.820,lm,2020.2.8,Win32,60,,,1,13,34,3,1
,,o,1.46345,,,,,,images/5.png,5,Manon.L,001,2020-12-07_20h42.20.820,lm,2020.2.8,Win32,60,,,1,14,35,15,1
,,e,2.085225,,,,,,images/-1.png,-1,Manon.L,001,2020-12-07_20h42.20.820,lm,2020.2.8,Win32,60,,,1,15,36,9,1
,,e,1.125125,,,,,,images/-8.png,-8,Manon.L,001,2020-12-07_20h42.20.820,lm,2020.2.8,Win32,60,,,1,16,37,2,1
,,e,1.721575,,,,,,images/-3.png,-3,Manon.L,001,2020-12-07_20h42.20.820,lm,2020.2.8,Win32,60,,,1,17,38,7,1
,,o,1.754555,,,,,,images/2.png,2,Manon.L,001,2020-12-07_20h42.20.820,lm,2020.2.8,Win32,60,,,1,18,39,12,1
,,e,2.29968,,,,,,images/-4.png,-4,Manon.L,001,2020-12-07_20h42.20.820,lm,2020.2.8,Win32,60,,,1,19,40,6,1
,,e,1.28004,,,,,,images/-6.png,-6,Manon.L,001,2020-12-07_20h42.20.820,lm,2020.2.8,Win32,60,,,1,20,41,4,1
,,o,1.48914,,,,,,images/-1.png,-1,Manon.L,001,2020-12-07_20h42.20.820,lm,2020.2.8,Win32,60,,,2,0,42,9,1
,,e,1.81386,,,,,,images/-9.png,-9,Manon.L,001,2020-12-07_20h42.20.820,lm,2020.2.8,Win32,60,,,2,1,43,1,1
,,o,2.19802,,,,,,images/5.png,5,Manon.L,001,2020-12-07_20h42.20.820,lm,2020.2.8,Win32,60,,,2,2,44,15,1
,,o,1.5587,,,,,,images/1.png,1,Manon.L,001,2020-12-07_20h42.20.820,lm,2020.2.8,Win32,60,,,2,3,45,11,1
,,e,1.14783,,,,,,images/-10.png,-10,Manon.L,001,2020-12-07_20h42.20.820,lm,2020.2.8,Win32,60,,,2,4,46,0,1
,,e,1.74038,,,,,,images/-4.png,-4,Manon.L,001,2020-12-07_20h42.20.820,lm,2020.2.8,Win32,60,,,2,5,47,6,1
,,o,0.87692,,,,,,images/8.png,8,Manon.L,001,2020-12-07_20h42.20.820,lm,2020.2.8,Win32,60,,,2,6,48,18,1
,,e,1.766065,,,,,,images/-6.png,-6,Manon.L,001,2020-12-07_20h42.20.820,lm,2020.2.8,Win32,60,,,2,7,49,4,1
,,o,1.4672,,,,,,images/4.png,4,Manon.L,001,2020-12-07_20h42.20.820,lm,2020.2.8,Win32,60,,,2,8,50,14,1
,,o,1.16555,,,,,,images/6.png,6,Manon.L,001,2020-12-07_20h42.20.820,lm,2020.2.8,Win32,60,,,2,9,51,16,1
,,o,1.395875,,,,,,images/9.png,9,Manon.L,001,2020-12-07_20h42.20.820,lm,2020.2.8,Win32,60,,,2,10,52,19,1
,,e,1.51913,,,,,,images/-2.png,-2,Manon.L,001,2020-12-07_20h42.20.820,lm,2020.2.8,Win32,60,,,2,11,53,8,1
,,e,1.20314,,,,,,images/-7.png,-7,Manon.L,001,2020-12-07_20h42.20.820,lm,2020.2.8,Win32,60,,,2,12,54,3,1
,,o,0.958305,,,,,,images/7.png,7,Manon.L,001,2020-12-07_20h42.20.820,lm,2020.2.8,Win32,60,,,2,13,55,17,1
,,e,1.23733,,,,,,images/-5.png,-5,Manon.L,001,2020-12-07_20h42.20.820,lm,2020.2.8,Win32,60,,,2,14,56,5,1
,,o,1.455375,,,,,,images/3.png,3,Manon.L,001,2020-12-07_20h42.20.820,lm,2020.2.8,Win32,60,,,2,15,57,13,1
,,o,1.583045,,,,,,images/0.png,0,Manon.L,001,2020-12-07_20h42.20.820,lm,2020.2.8,Win32,60,,,2,16,58,10,1
,,o,1.43537,,,,,,images/10.png,10,Manon.L,001,2020-12-07_20h42.20.820,lm,2020.2.8,Win32,60,,,2,17,59,20,1
,,e,2.292865,,,,,,images/2.png,2,Manon.L,001,2020-12-07_20h42.20.820,lm,2020.2.8,Win32,60,,,2,18,60,12,1
,,e,1.57507,,,,,,images/-3.png,-3,Manon.L,001,2020-12-07_20h42.20.820,lm,2020.2.8,Win32,60,,,2,19,61,7,1
,,o,2.260705,,,,,,images/-8.png,-8,Manon.L,001,2020-12-07_20h42.20.820,lm,2020.2.8,Win32,60,,,2,20,62,2,1
,,o,1.998335,,,,,,images/-2.png,-2,Manon.L,001,2020-12-07_20h42.20.820,lm,2020.2.8,Win32,60,,,3,0,63,8,1
,,e,1.42605,,,,,,images/-3.png,-3,Manon.L,001,2020-12-07_20h42.20.820,lm,2020.2.8,Win32,60,,,3,1,64,7,1
,,o,1.601905,,,,,,images/4.png,4,Manon.L,001,2020-12-07_20h42.20.820,lm,2020.2.8,Win32,60,,,3,2,65,14,1
,,e,1.88531,,,,,,images/-4.png,-4,Manon.L,001,2020-12-07_20h42.20.820,lm,2020.2.8,Win32,60,,,3,3,66,6,1
,,e,1.33373,,,,,,images/-5.png,-5,Manon.L,001,2020-12-07_20h42.20.820,lm,2020.2.8,Win32,60,,,3,4,67,5,1
,,o,1.56513,,,,,,images/1.png,1,Manon.L,001,2020-12-07_20h42.20.820,lm,2020.2.8,Win32,60,,,3,5,68,11,1
,,o,1.641025,,,,,,images/7.png,7,Manon.L,001,2020-12-07_20h42.20.820,lm,2020.2.8,Win32,60,,,3,6,69,17,1
,,e,1.135265,,,,,,images/0.png,0,Manon.L,001,2020-12-07_20h42.20.820,lm,2020.2.8,Win32,60,,,3,7,70,10,1
,,e,2.08422,,,,,,images/-9.png,-9,Manon.L,001,2020-12-07_20h42.20.820,lm,2020.2.8,Win32,60,,,3,8,71,1,1
,,e,1.6494,,,,,,images/-7.png,-7,Manon.L,001,2020-12-07_20h42.20.820,lm,2020.2.8,Win32,60,,,3,9,72,3,1
,,e,1.728905,,,,,,images/-8.png,-8,Manon.L,001,2020-12-07_20h42.20.820,lm,2020.2.8,Win32,60,,,3,10,73,2,1
,,o,1.87697,,,,,,images/2.png,2,Manon.L,001,2020-12-07_20h42.20.820,lm,2020.2.8,Win32,60,,,3,11,74,12,1
,,o,1.057045,,,,,,images/10.png,10,Manon.L,001,2020-12-07_20h42.20.820,lm,2020.2.8,Win32,60,,,3,12,75,20,1
,,o,0.80776,,,,,,images/9.png,9,Manon.L,001,2020-12-07_20h42.20.820,lm,2020.2.8,Win32,60,,,3,13,76,19,1
,,o,1.792065,,,,,,images/8.png,8,Manon.L,001,2020-12-07_20h42.20.820,lm,2020.2.8,Win32,60,,,3,14,77,18,1
,,o,3.24748,,,,,,images/6.png,6,Manon.L,001,2020-12-07_20h42.20.820,lm,2020.2.8,Win32,60,,,3,15,78,16,1
,,e,0.952415,,,,,,images/-10.png,-10,Manon.L,001,2020-12-07_20h42.20.820,lm,2020.2.8,Win32,60,,,3,16,79,0,1
,,e,1.299145,,,,,,images/-6.png,-6,Manon.L,001,2020-12-07_20h42.20.820,lm,2020.2.8,Win32,60,,,3,17,80,4,1
,,o,2.214675,,,,,,images/3.png,3,Manon.L,001,2020-12-07_20h42.20.820,lm,2020.2.8,Win32,60,,,3,18,81,13,1
,,o,1.11688,,,,,,images/5.png,5,Manon.L,001,2020-12-07_20h42.20.820,lm,2020.2.8,Win32,60,,,3,19,82,15,1
,,o,1.95591,,,,,,images/-1.png,-1,Manon.L,001,2020-12-07_20h42.20.820,lm,2020.2.8,Win32,60,,,3,20,83,9,1
