resp_txt.keys,resp_txt.rt,resp.keys,resp.rt,trials_training.thisRepN,trials_training.thisTrialN,trials_training.thisN,trials_training.thisIndex,trials_training.ran,line_file,offset,participant,session,droitier (D) ou gaucher (G) ?,Age ?,date,expName,psychopyVersion,OS,frameRate,key_resp_after_training.keys,key_resp_after_training.rt,trials.thisRepN,trials.thisTrialN,trials.thisN,trials.thisIndex,trials.ran
space,34.41337,o,2.46882,0,0,0,9,1,images/5.png,5,JJ,001,D,44,2020-12-08_22h18.19.422,lm,2020.2.8,Win32,60,,,,,,,
,,o,1.475195,0,1,1,5,1,images/10.png,10,JJ,001,D,44,2020-12-08_22h18.19.422,lm,2020.2.8,Win32,60,,,,,,,
,,e,0.768335,0,2,2,10,1,images/-6.png,-6,JJ,001,D,44,2020-12-08_22h18.19.422,lm,2020.2.8,Win32,60,,,,,,,
,,e,0.633155,0,3,3,1,1,images/-3.png,-3,JJ,001,D,44,2020-12-08_22h18.19.422,lm,2020.2.8,Win32,60,,,,,,,
,,o,0.400035,0,4,4,11,1,images/3.png,3,JJ,001,D,44,2020-12-08_22h18.19.422,lm,2020.2.8,Win32,60,,,,,,,
,,o,0.51511,0,5,5,14,1,images/5.png,5,JJ,001,D,44,2020-12-08_22h18.19.422,lm,2020.2.8,Win32,60,,,,,,,
,,e,0.290985,0,6,6,7,1,images/-1.png,-1,JJ,001,D,44,2020-12-08_22h18.19.422,lm,2020.2.8,Win32,60,,,,,,,
,,e,0.292235,0,7,7,13,1,images/-6.png,-6,JJ,001,D,44,2020-12-08_22h18.19.422,lm,2020.2.8,Win32,60,,,,,,,
,,o,0.59337,0,8,8,4,1,images/2.png,2,JJ,001,D,44,2020-12-08_22h18.19.422,lm,2020.2.8,Win32,60,,,,,,,
,,e,0.85969,0,9,9,6,1,images/0.png,0,JJ,001,D,44,2020-12-08_22h18.19.422,lm,2020.2.8,Win32,60,,,,,,,
,,e,0.371935,0,10,10,0,1,images/-10.png,-10,JJ,001,D,44,2020-12-08_22h18.19.422,lm,2020.2.8,Win32,60,,,,,,,
,,e,1.17367,0,11,11,8,1,images/-3.png,-3,JJ,001,D,44,2020-12-08_22h18.19.422,lm,2020.2.8,Win32,60,,,,,,,
,,o,0.712675,0,12,12,12,1,images/1.png,1,JJ,001,D,44,2020-12-08_22h18.19.422,lm,2020.2.8,Win32,60,,,,,,,
,,e,0.43314,0,13,13,3,1,images/-4.png,-4,JJ,001,D,44,2020-12-08_22h18.19.422,lm,2020.2.8,Win32,60,,,,,,,
,,e,0.32832,0,14,14,2,1,images/-8.png,-8,JJ,001,D,44,2020-12-08_22h18.19.422,lm,2020.2.8,Win32,60,,,,,,,
,,e,0.42567,,,,,,images/-8.png,-8,JJ,001,D,44,2020-12-08_22h18.19.422,lm,2020.2.8,Win32,60,space,13.784015,0,0,0,33,1
,,o,0.257335,,,,,,images/6.png,6,JJ,001,D,44,2020-12-08_22h18.19.422,lm,2020.2.8,Win32,60,,,0,1,1,69,1
,,o,0.317175,,,,,,images/5.png,5,JJ,001,D,44,2020-12-08_22h18.19.422,lm,2020.2.8,Win32,60,,,0,2,2,32,1
,,o,0.251585,,,,,,images/3.png,3,JJ,001,D,44,2020-12-08_22h18.19.422,lm,2020.2.8,Win32,60,,,0,3,3,17,1
,,e,0.231615,,,,,,images/2.png,2,JJ,001,D,44,2020-12-08_22h18.19.422,lm,2020.2.8,Win32,60,,,0,4,4,21,1
,,o,0.264695,,,,,,images/6.png,6,JJ,001,D,44,2020-12-08_22h18.19.422,lm,2020.2.8,Win32,60,,,0,5,5,45,1
,,o,0.242785,,,,,,images/10.png,10,JJ,001,D,44,2020-12-08_22h18.19.422,lm,2020.2.8,Win32,60,,,0,6,6,12,1
,,e,0.184585,,,,,,images/-1.png,-1,JJ,001,D,44,2020-12-08_22h18.19.422,lm,2020.2.8,Win32,60,,,0,7,7,50,1
,,o,0.218295,,,,,,images/8.png,8,JJ,001,D,44,2020-12-08_22h18.19.422,lm,2020.2.8,Win32,60,,,0,8,8,30,1
,,e,0.17056,,,,,,images/-4.png,-4,JJ,001,D,44,2020-12-08_22h18.19.422,lm,2020.2.8,Win32,60,,,0,9,9,42,1
,,e,0.28287,,,,,,images/-7.png,-7,JJ,001,D,44,2020-12-08_22h18.19.422,lm,2020.2.8,Win32,60,,,0,10,10,26,1
,,o,0.165715,,,,,,images/0.png,0,JJ,001,D,44,2020-12-08_22h18.19.422,lm,2020.2.8,Win32,60,,,0,11,11,24,1
,,e,0.151695,,,,,,images/0.png,0,JJ,001,D,44,2020-12-08_22h18.19.422,lm,2020.2.8,Win32,60,,,0,12,12,61,1
,,o,0.27875,,,,,,images/7.png,7,JJ,001,D,44,2020-12-08_22h18.19.422,lm,2020.2.8,Win32,60,,,0,13,13,78,1
,,e,0.15904,,,,,,images/-1.png,-1,JJ,001,D,44,2020-12-08_22h18.19.422,lm,2020.2.8,Win32,60,,,0,14,14,5,1
,,o,0.2533,,,,,,images/4.png,4,JJ,001,D,44,2020-12-08_22h18.19.422,lm,2020.2.8,Win32,60,,,0,15,15,18,1
,,e,0.15228,,,,,,images/0.png,0,JJ,001,D,44,2020-12-08_22h18.19.422,lm,2020.2.8,Win32,60,,,0,16,16,74,1
,,o,0.25142,,,,,,images/4.png,4,JJ,001,D,44,2020-12-08_22h18.19.422,lm,2020.2.8,Win32,60,,,0,17,17,36,1
,,e,0.15984,,,,,,images/2.png,2,JJ,001,D,44,2020-12-08_22h18.19.422,lm,2020.2.8,Win32,60,,,0,18,18,56,1
,,e,0.250505,,,,,,images/0.png,0,JJ,001,D,44,2020-12-08_22h18.19.422,lm,2020.2.8,Win32,60,,,0,19,19,70,1
,,e,0.2111,,,,,,images/-1.png,-1,JJ,001,D,44,2020-12-08_22h18.19.422,lm,2020.2.8,Win32,60,,,0,20,20,79,1
,,e,0.328905,,,,,,images/1.png,1,JJ,001,D,44,2020-12-08_22h18.19.422,lm,2020.2.8,Win32,60,,,0,21,21,53,1
,,e,0.301305,,,,,,images/1.png,1,JJ,001,D,44,2020-12-08_22h18.19.422,lm,2020.2.8,Win32,60,,,0,22,22,20,1
,,e,0.22437,,,,,,images/-1.png,-1,JJ,001,D,44,2020-12-08_22h18.19.422,lm,2020.2.8,Win32,60,,,0,23,23,83,1
,,e,0.24178,,,,,,images/0.png,0,JJ,001,D,44,2020-12-08_22h18.19.422,lm,2020.2.8,Win32,60,,,0,24,24,73,1
,,e,0.276,,,,,,images/2.png,2,JJ,001,D,44,2020-12-08_22h18.19.422,lm,2020.2.8,Win32,60,,,0,25,25,82,1
,,e,0.18768,,,,,,images/-7.png,-7,JJ,001,D,44,2020-12-08_22h18.19.422,lm,2020.2.8,Win32,60,,,0,26,26,27,1
,,e,0.320035,,,,,,images/1.png,1,JJ,001,D,44,2020-12-08_22h18.19.422,lm,2020.2.8,Win32,60,,,0,27,27,3,1
,,e,0.279495,,,,,,images/3.png,3,JJ,001,D,44,2020-12-08_22h18.19.422,lm,2020.2.8,Win32,60,,,0,28,28,60,1
,,e,0.250475,,,,,,images/-5.png,-5,JJ,001,D,44,2020-12-08_22h18.19.422,lm,2020.2.8,Win32,60,,,0,29,29,51,1
,,e,0.17437,,,,,,images/-3.png,-3,JJ,001,D,44,2020-12-08_22h18.19.422,lm,2020.2.8,Win32,60,,,0,30,30,9,1
,,e,0.21822,,,,,,images/-2.png,-2,JJ,001,D,44,2020-12-08_22h18.19.422,lm,2020.2.8,Win32,60,,,0,31,31,8,1
,,e,0.137345,,,,,,images/0.png,0,JJ,001,D,44,2020-12-08_22h18.19.422,lm,2020.2.8,Win32,60,,,0,32,32,31,1
,,o,0.27395,,,,,,images/9.png,9,JJ,001,D,44,2020-12-08_22h18.19.422,lm,2020.2.8,Win32,60,,,0,33,33,13,1
,,o,0.26618,,,,,,images/7.png,7,JJ,001,D,44,2020-12-08_22h18.19.422,lm,2020.2.8,Win32,60,,,0,34,34,4,1
,,e,0.26833,,,,,,images/-2.png,-2,JJ,001,D,44,2020-12-08_22h18.19.422,lm,2020.2.8,Win32,60,,,0,35,35,40,1
,,e,0.2189,,,,,,images/-6.png,-6,JJ,001,D,44,2020-12-08_22h18.19.422,lm,2020.2.8,Win32,60,,,0,36,36,34,1
,,o,0.234135,,,,,,images/6.png,6,JJ,001,D,44,2020-12-08_22h18.19.422,lm,2020.2.8,Win32,60,,,0,37,37,44,1
,,e,0.14607,,,,,,images/2.png,2,JJ,001,D,44,2020-12-08_22h18.19.422,lm,2020.2.8,Win32,60,,,0,38,38,7,1
,,e,0.281755,,,,,,images/-4.png,-4,JJ,001,D,44,2020-12-08_22h18.19.422,lm,2020.2.8,Win32,60,,,0,39,39,22,1
,,e,0.2985,,,,,,images/2.png,2,JJ,001,D,44,2020-12-08_22h18.19.422,lm,2020.2.8,Win32,60,,,0,40,40,59,1
,,e,0.33429,,,,,,images/-2.png,-2,JJ,001,D,44,2020-12-08_22h18.19.422,lm,2020.2.8,Win32,60,,,0,41,41,80,1
,,o,0.459415,,,,,,images/1.png,1,JJ,001,D,44,2020-12-08_22h18.19.422,lm,2020.2.8,Win32,60,,,0,42,42,29,1
,,o,0.26468,,,,,,images/5.png,5,JJ,001,D,44,2020-12-08_22h18.19.422,lm,2020.2.8,Win32,60,,,0,43,43,48,1
,,e,0.230785,,,,,,images/-4.png,-4,JJ,001,D,44,2020-12-08_22h18.19.422,lm,2020.2.8,Win32,60,,,0,44,44,10,1
,,e,0.302605,,,,,,images/0.png,0,JJ,001,D,44,2020-12-08_22h18.19.422,lm,2020.2.8,Win32,60,,,0,45,45,41,1
,,o,0.21634,,,,,,images/6.png,6,JJ,001,D,44,2020-12-08_22h18.19.422,lm,2020.2.8,Win32,60,,,0,46,46,75,1
,,o,0.518335,,,,,,images/2.png,2,JJ,001,D,44,2020-12-08_22h18.19.422,lm,2020.2.8,Win32,60,,,0,47,47,66,1
,,e,0.167695,,,,,,images/1.png,1,JJ,001,D,44,2020-12-08_22h18.19.422,lm,2020.2.8,Win32,60,,,0,48,48,43,1
,,o,0.226785,,,,,,images/5.png,5,JJ,001,D,44,2020-12-08_22h18.19.422,lm,2020.2.8,Win32,60,,,0,49,49,64,1
,,e,0.162005,,,,,,images/-9.png,-9,JJ,001,D,44,2020-12-08_22h18.19.422,lm,2020.2.8,Win32,60,,,0,50,50,65,1
,,e,0.18655,,,,,,images/-1.png,-1,JJ,001,D,44,2020-12-08_22h18.19.422,lm,2020.2.8,Win32,60,,,0,51,51,15,1
,,e,0.27278,,,,,,images/0.png,0,JJ,001,D,44,2020-12-08_22h18.19.422,lm,2020.2.8,Win32,60,,,0,52,52,25,1
,,e,0.21504,,,,,,images/-3.png,-3,JJ,001,D,44,2020-12-08_22h18.19.422,lm,2020.2.8,Win32,60,,,0,53,53,6,1
,,e,0.158925,,,,,,images/-6.png,-6,JJ,001,D,44,2020-12-08_22h18.19.422,lm,2020.2.8,Win32,60,,,0,54,54,58,1
,,e,0.167805,,,,,,images/-2.png,-2,JJ,001,D,44,2020-12-08_22h18.19.422,lm,2020.2.8,Win32,60,,,0,55,55,76,1
,,e,0.516785,,,,,,images/4.png,4,JJ,001,D,44,2020-12-08_22h18.19.422,lm,2020.2.8,Win32,60,,,0,56,56,47,1
,,e,0.234165,,,,,,images/0.png,0,JJ,001,D,44,2020-12-08_22h18.19.422,lm,2020.2.8,Win32,60,,,0,57,57,57,1
,,e,0.25854,,,,,,images/-8.png,-8,JJ,001,D,44,2020-12-08_22h18.19.422,lm,2020.2.8,Win32,60,,,0,58,58,77,1
,,e,0.35107,,,,,,images/3.png,3,JJ,001,D,44,2020-12-08_22h18.19.422,lm,2020.2.8,Win32,60,,,0,59,59,37,1
,,e,0.29121,,,,,,images/-5.png,-5,JJ,001,D,44,2020-12-08_22h18.19.422,lm,2020.2.8,Win32,60,,,0,60,60,68,1
,,o,0.26858,,,,,,images/10.png,10,JJ,001,D,44,2020-12-08_22h18.19.422,lm,2020.2.8,Win32,60,,,0,61,61,46,1
,,o,0.6182,,,,,,images/-1.png,-1,JJ,001,D,44,2020-12-08_22h18.19.422,lm,2020.2.8,Win32,60,,,0,62,62,38,1
,,e,0.316635,,,,,,images/-3.png,-3,JJ,001,D,44,2020-12-08_22h18.19.422,lm,2020.2.8,Win32,60,,,0,63,63,67,1
,,e,0.25397,,,,,,images/-2.png,-2,JJ,001,D,44,2020-12-08_22h18.19.422,lm,2020.2.8,Win32,60,,,0,64,64,23,1
,,e,0.347785,,,,,,images/-9.png,-9,JJ,001,D,44,2020-12-08_22h18.19.422,lm,2020.2.8,Win32,60,,,0,65,65,49,1
,,e,0.2682,,,,,,images/-5.png,-5,JJ,001,D,44,2020-12-08_22h18.19.422,lm,2020.2.8,Win32,60,,,0,66,66,2,1
,,e,0.21806,,,,,,images/-6.png,-6,JJ,001,D,44,2020-12-08_22h18.19.422,lm,2020.2.8,Win32,60,,,0,67,67,39,1
,,e,0.218615,,,,,,images/-6.png,-6,JJ,001,D,44,2020-12-08_22h18.19.422,lm,2020.2.8,Win32,60,,,0,68,68,35,1
,,o,0.300565,,,,,,images/9.png,9,JJ,001,D,44,2020-12-08_22h18.19.422,lm,2020.2.8,Win32,60,,,0,69,69,19,1
,,o,0.450825,,,,,,images/0.png,0,JJ,001,D,44,2020-12-08_22h18.19.422,lm,2020.2.8,Win32,60,,,0,70,70,1,1
,,o,0.541825,,,,,,images/-2.png,-2,JJ,001,D,44,2020-12-08_22h18.19.422,lm,2020.2.8,Win32,60,,,0,71,71,0,1
,,e,0.383395,,,,,,images/0.png,0,JJ,001,D,44,2020-12-08_22h18.19.422,lm,2020.2.8,Win32,60,,,0,72,72,11,1
,,e,0.21938,,,,,,images/-5.png,-5,JJ,001,D,44,2020-12-08_22h18.19.422,lm,2020.2.8,Win32,60,,,0,73,73,71,1
,,o,0.26788,,,,,,images/8.png,8,JJ,001,D,44,2020-12-08_22h18.19.422,lm,2020.2.8,Win32,60,,,0,74,74,62,1
,,o,0.27913,,,,,,images/4.png,4,JJ,001,D,44,2020-12-08_22h18.19.422,lm,2020.2.8,Win32,60,,,0,75,75,63,1
,,o,0.247695,,,,,,images/1.png,1,JJ,001,D,44,2020-12-08_22h18.19.422,lm,2020.2.8,Win32,60,,,0,76,76,14,1
,,e,0.1675,,,,,,images/-10.png,-10,JJ,001,D,44,2020-12-08_22h18.19.422,lm,2020.2.8,Win32,60,,,0,77,77,54,1
,,e,0.183315,,,,,,images/-3.png,-3,JJ,001,D,44,2020-12-08_22h18.19.422,lm,2020.2.8,Win32,60,,,0,78,78,28,1
,,e,0.38309,,,,,,images/-10.png,-10,JJ,001,D,44,2020-12-08_22h18.19.422,lm,2020.2.8,Win32,60,,,0,79,79,81,1
,,o,0.264975,,,,,,images/3.png,3,JJ,001,D,44,2020-12-08_22h18.19.422,lm,2020.2.8,Win32,60,,,0,80,80,72,1
,,e,0.17223,,,,,,images/0.png,0,JJ,001,D,44,2020-12-08_22h18.19.422,lm,2020.2.8,Win32,60,,,0,81,81,55,1
,,o,0.313205,,,,,,images/5.png,5,JJ,001,D,44,2020-12-08_22h18.19.422,lm,2020.2.8,Win32,60,,,0,82,82,52,1
,,e,0.20003,,,,,,images/-4.png,-4,JJ,001,D,44,2020-12-08_22h18.19.422,lm,2020.2.8,Win32,60,,,0,83,83,16,1
